[{"url":{"srid":"6585"},"meta":{"labjs_version":"20.2.4","labjs_build":{"flavor":"production","commit":"f5b4a49f956347addd546a832a3327688c2c0fef"},"location":"https://studien.psychologie.uni-freiburg.de/publix/323/346/start?srid=6585","userAgent":"Mozilla/5.0 (Macintosh; Intel Mac OS X 10_15_6) AppleWebKit/605.1.15 (KHTML, like Gecko) Version/15.1 Safari/605.1.15","platform":"MacIntel","language":"de-DE","locale":"de-DE","timeZone":"Europe/Berlin","timezoneOffset":-60,"screen_width":810,"screen_height":1080,"scroll_width":1080,"scroll_height":435,"window_innerWidth":1080,"window_innerHeight":707,"devicePixelRatio":2},"para_defocuscount":[{"durationblur":3,"senderblur":"Greetings"},{"durationblur":251,"senderblur":"Greetings"}],"sender":"Greetings","sender_type":"html.Form","sender_id":"0","":"","ended_on":"form submission","duration":3832,"time_run":768,"time_render":806,"time_show":828,"time_end":4660,"time_commit":4662,"timestamp":"2021-12-31T17:56:20.050Z","time_switch":4685},{"SONA_ID":"5337","sender":"InformedConsent","sender_type":"html.Form","sender_id":"1","dummy_informedconsent":"1","":"","ended_on":"form submission","duration":8441,"time_run":4663,"time_render":4669,"time_show":4685,"time_end":13126,"time_commit":13127,"timestamp":"2021-12-31T17:56:28.516Z"}]
[{"url":{"srid":"6584"},"meta":{"labjs_version":"20.2.4","labjs_build":{"flavor":"production","commit":"f5b4a49f956347addd546a832a3327688c2c0fef"},"location":"https://studien.psychologie.uni-freiburg.de/publix/323/346/start?srid=6584","userAgent":"Mozilla/5.0 (Macintosh; Intel Mac OS X 10_15_6) AppleWebKit/605.1.15 (KHTML, like Gecko) Version/15.1 Safari/605.1.15","platform":"MacIntel","language":"de-DE","locale":"de-DE","timeZone":"Europe/Berlin","timezoneOffset":-60,"screen_width":810,"screen_height":1080,"scroll_width":1080,"scroll_height":435,"window_innerWidth":1080,"window_innerHeight":707,"devicePixelRatio":2},"para_defocuscount":[{"durationblur":9.99999999999909,"senderblur":"Greetings"},{"durationblur":243,"senderblur":"Greetings"}],"sender":"Greetings","sender_type":"html.Form","sender_id":"0","":"","ended_on":"form submission","duration":32471,"time_run":1857,"time_render":1876,"time_show":1892,"time_end":34363,"time_commit":34364,"timestamp":"2021-12-31T17:55:56.935Z","time_switch":34489},{"SONA_ID":"5337","sender":"InformedConsent","sender_type":"html.Form","sender_id":"1","dummy_informedconsent":"0","":"","ended_on":"form submission","duration":7199,"time_run":34366,"time_render":34374,"time_show":34489,"time_end":41688,"time_commit":41688,"timestamp":"2021-12-31T17:56:04.259Z"}]
[{"url":{"srid":"6580"},"meta":{"labjs_version":"20.2.4","labjs_build":{"flavor":"production","commit":"f5b4a49f956347addd546a832a3327688c2c0fef"},"location":"https://studien.psychologie.uni-freiburg.de/publix/323/346/start?srid=6580","userAgent":"Mozilla/5.0 (Windows NT 10.0; Win64; x64) AppleWebKit/537.36 (KHTML, like Gecko) Chrome/96.0.4664.110 Safari/537.36 Edg/96.0.1054.62","platform":"Win32","language":"de","locale":"de","timeZone":"Europe/Berlin","timezoneOffset":-60,"screen_width":1404,"screen_height":790,"scroll_width":1404,"scroll_height":435,"window_innerWidth":1404,"window_innerHeight":717,"devicePixelRatio":1.1399999856948853},"para_defocuscount":[{"durationblur":437.7999999523163,"senderblur":"Greetings"}],"sender":"Greetings","sender_type":"html.Form","sender_id":"0","":"","ended_on":"form submission","duration":116199.47500014305,"time_run":2121.2000000476837,"time_render":2104.088,"time_show":2204.125,"time_end":118403.60000014305,"time_commit":118406,"timestamp":"2021-12-31T17:16:25.632Z","time_switch":118456.432},{"SONA_ID":"4797","sender":"InformedConsent","sender_type":"html.Form","sender_id":"1","dummy_informedconsent":"1","":"","ended_on":"form submission","duration":11380.368000190734,"time_run":118411.60000014305,"time_render":118373.304,"time_show":118456.432,"time_end":129836.80000019073,"time_commit":129837.40000009537,"timestamp":"2021-12-31T17:16:37.063Z","time_switch":129854.998},{"sender":"InformedConsentNO","sender_type":"html.Form","sender_id":"2","ended_on":"skipped","duration":null,"time_run":129856.20000004768,"time_end":129836.80000019073,"time_commit":129856.60000014305,"timestamp":"2021-12-31T17:16:37.083Z","time_switch":129854.998},{"sender":"ExclusionCriteria","sender_type":"html.Form","sender_id":"3","":"","ended_on":"form submission","duration":9938.702000047677,"time_run":129857.40000009537,"time_render":129822.063,"time_show":129854.998,"time_end":139793.70000004768,"time_commit":139794.20000004768,"timestamp":"2021-12-31T17:16:47.020Z","time_switch":139803.728},{"sender":"SetupStudy","sender_type":"html.Form","sender_id":"4","":"","ended_on":"form submission","duration":17774.47200004768,"time_run":139794.60000014305,"time_render":139787.351,"time_show":139803.728,"time_end":157578.20000004768,"time_commit":157578.70000004768,"timestamp":"2021-12-31T17:17:04.805Z","time_switch":157668.568},{"sender":"done","sender_type":"html.Screen","sender_id":"5","ended_on":null,"duration":359798.8320000954,"time_run":157579.30000019073,"time_render":157568.85,"time_show":157668.568,"time_end":517467.40000009537,"time_commit":517468,"timestamp":"2021-12-31T17:23:04.694Z","time_switch":517490.313},{"sender":"ScenarioText","sender_type":"html.Form","sender_id":"6","":"","ended_on":"form submission","duration":115428.98700019071,"time_run":517468.30000019073,"time_render":517457.636,"time_show":517490.313,"time_end":632919.3000001907,"time_commit":632919.7000000477,"timestamp":"2021-12-31T17:25:00.146Z","time_switch":632925.901},{"sender":"linkCAM","sender_type":"html.Screen","sender_id":"7","ended_on":"timeout","duration":6999.202000000048,"time_run":632920.100000143,"time_render":632909.549,"time_show":632925.901,"time_end":639908.723,"time_commit":639916.7000000477,"timestamp":"2021-12-31T17:25:07.143Z","time_switch":639925.103},{"sender":null,"sender_type":"flow.Sequence","sender_id":null,"ended_on":"completion","duration":637704.598,"time_run":2120.5,"time_render":2104.088,"time_show":2204.125,"time_end":639908.723,"time_commit":639917.8000001907,"timestamp":"2021-12-31T17:25:07.144Z","time_switch":639925.103}]
[{"url":{"srid":"6574"},"meta":{"labjs_version":"20.2.4","labjs_build":{"flavor":"production","commit":"f5b4a49f956347addd546a832a3327688c2c0fef"},"location":"https://studien.psychologie.uni-freiburg.de/publix/323/346/start?srid=6574","userAgent":"Mozilla/5.0 (Windows NT 10.0; Win64; x64) AppleWebKit/537.36 (KHTML, like Gecko) Chrome/96.0.4664.110 Safari/537.36 Edg/96.0.1054.62","platform":"Win32","language":"de","locale":"de","timeZone":"Europe/Berlin","timezoneOffset":-60,"screen_width":1536,"screen_height":864,"scroll_width":1536,"scroll_height":436,"window_innerWidth":1536,"window_innerHeight":754,"devicePixelRatio":1.25},"sender":"Greetings","sender_type":"html.Form","sender_id":"0","":"","ended_on":"form submission","duration":39108.299,"time_run":1308.1000001430511,"time_render":1318.722,"time_show":1368.701,"time_end":40477,"time_commit":40477.799999952316,"timestamp":"2021-12-31T15:12:08.063Z","time_switch":40492.733},{"SONA_ID":"5350","sender":"InformedConsent","sender_type":"html.Form","sender_id":"1","dummy_informedconsent":"1","":"","ended_on":"form submission","duration":6811.066999952316,"time_run":40479.60000014305,"time_render":40459.402,"time_show":40492.733,"time_end":47303.799999952316,"time_commit":47304.10000014305,"timestamp":"2021-12-31T15:12:14.889Z","time_switch":47307.772},{"sender":"InformedConsentNO","sender_type":"html.Form","sender_id":"2","ended_on":"skipped","duration":null,"time_run":47311.799999952316,"time_end":47303.799999952316,"time_commit":47312.200000047684,"timestamp":"2021-12-31T15:12:14.897Z","time_switch":47307.772},{"sender":"ExclusionCriteria","sender_type":"html.Form","sender_id":"3","":"","ended_on":"form submission","duration":6571.228000000003,"time_run":47312.40000009537,"time_render":47291.095,"time_show":47307.772,"time_end":53879,"time_commit":53879.200000047684,"timestamp":"2021-12-31T15:12:21.464Z","time_switch":53889.75},{"sender":"SetupStudy","sender_type":"html.Form","sender_id":"4","":"","ended_on":"form submission","duration":18085.450000047684,"time_run":53879.299999952316,"time_render":53872.867,"time_show":53889.75,"time_end":71975.20000004768,"time_commit":71975.5,"timestamp":"2021-12-31T15:12:39.561Z","time_switch":72001.895},{"sender":"done","sender_type":"html.Screen","sender_id":"5","ended_on":null,"duration":425648.605,"time_run":71975.60000014305,"time_render":71968.555,"time_show":72001.895,"time_end":497650.5,"time_commit":497651,"timestamp":"2021-12-31T15:19:45.236Z","time_switch":497667.34},{"sender":"ScenarioText","sender_type":"html.Form","sender_id":"6","":"","ended_on":"form submission","duration":99964.65999999997,"time_run":497651.60000014305,"time_render":497650.679,"time_show":497667.34,"time_end":597632,"time_commit":597632.2999999523,"timestamp":"2021-12-31T15:21:25.218Z","time_switch":597643.549},{"sender":"linkCAM","sender_type":"html.Screen","sender_id":"7","ended_on":"timeout","duration":6998.76800000004,"time_run":597632.5,"time_render":597627.349,"time_show":597643.549,"time_end":604625.276,"time_commit":604632.7999999523,"timestamp":"2021-12-31T15:21:32.218Z","time_switch":604642.317},{"sender":null,"sender_type":"flow.Sequence","sender_id":null,"ended_on":"completion","duration":603256.575,"time_run":1307.6000001430511,"time_render":1318.722,"time_show":1368.701,"time_end":604625.276,"time_commit":604633.7000000477,"timestamp":"2021-12-31T15:21:32.219Z","time_switch":604642.317}]
[{"url":{"srid":"6571"},"meta":{"labjs_version":"20.2.4","labjs_build":{"flavor":"production","commit":"f5b4a49f956347addd546a832a3327688c2c0fef"},"location":"https://studien.psychologie.uni-freiburg.de/publix/323/346/start?srid=6571","userAgent":"Mozilla/5.0 (Windows NT 10.0; Win64; x64; rv:95.0) Gecko/20100101 Firefox/95.0","platform":"Win32","language":"de","locale":"de-DE","timeZone":"Europe/Berlin","timezoneOffset":-60,"screen_width":1536,"screen_height":864,"scroll_width":1536,"scroll_height":179,"window_innerWidth":1536,"window_innerHeight":711,"devicePixelRatio":1.25},"sender":"Greetings","sender_type":"html.Form","sender_id":"0","":"","ended_on":"form submission","duration":56784.16,"time_run":1034,"time_render":1039.18,"time_show":1055.84,"time_end":57840,"time_commit":57840,"timestamp":"2021-12-31T13:49:24.725Z","time_switch":57839.62},{"SONA_ID":"5349","sender":"InformedConsent","sender_type":"html.Form","sender_id":"1","dummy_informedconsent":"1","":"","ended_on":"form submission","duration":40553.38,"time_run":57841,"time_render":57831.4,"time_show":57839.62,"time_end":98393,"time_commit":98394,"timestamp":"2021-12-31T13:50:05.279Z","time_switch":98404.26},{"sender":"InformedConsentNO","sender_type":"html.Form","sender_id":"2","ended_on":"skipped","duration":null,"time_run":98396,"time_end":98393,"time_commit":98396,"timestamp":"2021-12-31T13:50:05.282Z","time_switch":98404.26},{"sender":"ExclusionCriteria","sender_type":"html.Form","sender_id":"3","":"","ended_on":"form submission","duration":8899.740000000005,"time_run":98397,"time_render":98391.08,"time_show":98404.26,"time_end":107304,"time_commit":107305,"timestamp":"2021-12-31T13:50:14.189Z","time_switch":107313.2},{"sender":"SetupStudy","sender_type":"html.Form","sender_id":"4","":"","ended_on":"form submission","duration":14159.800000000003,"time_run":107305,"time_render":107303.56,"time_show":107313.2,"time_end":121473,"time_commit":121473,"timestamp":"2021-12-31T13:50:28.357Z","time_switch":121483.98},{"sender":"done","sender_type":"html.Screen","sender_id":"5","ended_on":null,"duration":380050.02,"time_run":121473,"time_render":121471.44,"time_show":121483.98,"time_end":501534,"time_commit":501534,"timestamp":"2021-12-31T13:56:48.419Z","time_switch":501535.7},{"sender":"ScenarioText","sender_type":"html.Form","sender_id":"6","":"","ended_on":"form submission","duration":92257.29999999999,"time_run":501535,"time_render":501534.88,"time_show":501535.7,"time_end":593793,"time_commit":593793,"timestamp":"2021-12-31T13:58:20.678Z","time_switch":593805.12},{"sender":"linkCAM","sender_type":"html.Screen","sender_id":"7","ended_on":"timeout","duration":6993.979999999981,"time_run":593793,"time_render":593792.14,"time_show":593805.12,"time_end":600782.42,"time_commit":600783,"timestamp":"2021-12-31T13:58:27.668Z","time_switch":600799.1},{"sender":null,"sender_type":"flow.Sequence","sender_id":null,"ended_on":"completion","duration":599726.5800000001,"time_run":1034,"time_render":1039.18,"time_show":1055.84,"time_end":600782.42,"time_commit":600784,"timestamp":"2021-12-31T13:58:27.668Z","time_switch":600799.1}]
[{"url":{"srid":"6568"},"meta":{"labjs_version":"20.2.4","labjs_build":{"flavor":"production","commit":"f5b4a49f956347addd546a832a3327688c2c0fef"},"location":"https://studien.psychologie.uni-freiburg.de/publix/323/346/start?srid=6568","userAgent":"Mozilla/5.0 (Windows NT 10.0; Win64; x64; rv:95.0) Gecko/20100101 Firefox/95.0","platform":"Win32","language":"de","locale":"de-DE","timeZone":"Europe/Berlin","timezoneOffset":-60,"screen_width":1366,"screen_height":768,"scroll_width":1366,"scroll_height":435,"window_innerWidth":1366,"window_innerHeight":643,"devicePixelRatio":1},"sender":"Greetings","sender_type":"html.Form","sender_id":"0","":"","ended_on":"form submission","duration":20160.12,"time_run":1403,"time_render":1402.88,"time_show":1422.88,"time_end":21583,"time_commit":21584,"timestamp":"2021-12-31T12:57:30.432Z","time_switch":21580.14},{"SONA_ID":"4308","sender":"InformedConsent","sender_type":"html.Form","sender_id":"1","dummy_informedconsent":"1","":"","ended_on":"form submission","duration":11402.86,"time_run":21587,"time_render":21569.42,"time_show":21580.14,"time_end":32983,"time_commit":32984,"timestamp":"2021-12-31T12:57:41.831Z","time_switch":32990.16},{"sender":"InformedConsentNO","sender_type":"html.Form","sender_id":"2","ended_on":"skipped","duration":null,"time_run":32989,"time_end":32983,"time_commit":32990,"timestamp":"2021-12-31T12:57:41.837Z","time_switch":32990.16},{"sender":"ExclusionCriteria","sender_type":"html.Form","sender_id":"3","":"","ended_on":"form submission","duration":4793.8399999999965,"time_run":32990,"time_render":32980.36,"time_show":32990.16,"time_end":37784,"time_commit":37785,"timestamp":"2021-12-31T12:57:46.631Z","time_switch":37794.2},{"sender":"SetupStudy","sender_type":"html.Form","sender_id":"4","":"","ended_on":"form submission","duration":6696.800000000003,"time_run":37786,"time_render":37781.64,"time_show":37794.2,"time_end":44491,"time_commit":44491,"timestamp":"2021-12-31T12:57:53.339Z","time_switch":44540.02},{"sender":"done","sender_type":"html.Screen","sender_id":"5","ended_on":null,"duration":348576.98,"time_run":44491,"time_render":44488.92,"time_show":44540.02,"time_end":393117,"time_commit":393120,"timestamp":"2021-12-31T13:03:41.967Z","time_switch":393134.38},{"sender":"ScenarioText","sender_type":"html.Form","sender_id":"6","":"","ended_on":"form submission","duration":98395.62,"time_run":393122,"time_render":393122.32,"time_show":393134.38,"time_end":491530,"time_commit":491531,"timestamp":"2021-12-31T13:05:20.378Z","time_switch":491536},{"sender":"linkCAM","sender_type":"html.Screen","sender_id":"7","ended_on":"timeout","duration":7006.140000000014,"time_run":491531,"time_render":491527.98,"time_show":491536,"time_end":498522.14,"time_commit":498524,"timestamp":"2021-12-31T13:05:27.371Z","time_switch":498542.14},{"sender":null,"sender_type":"flow.Sequence","sender_id":null,"ended_on":"completion","duration":497099.26,"time_run":1403,"time_render":1402.88,"time_show":1422.88,"time_end":498522.14,"time_commit":498526,"timestamp":"2021-12-31T13:05:27.372Z","time_switch":498542.14}]
[{"url":{"srid":"6565"},"meta":{"labjs_version":"20.2.4","labjs_build":{"flavor":"production","commit":"f5b4a49f956347addd546a832a3327688c2c0fef"},"location":"https://studien.psychologie.uni-freiburg.de/publix/323/346/start?srid=6565","userAgent":"Mozilla/5.0 (Macintosh; Intel Mac OS X 10_15_7) AppleWebKit/605.1.15 (KHTML, like Gecko) Version/15.1 Safari/605.1.15","platform":"MacIntel","language":"de-DE","locale":"de-DE","timeZone":"Europe/Madrid","timezoneOffset":-60,"screen_width":1280,"screen_height":800,"scroll_width":1249,"scroll_height":435,"window_innerWidth":1249,"window_innerHeight":599,"devicePixelRatio":2},"para_defocuscount":[{"durationblur":null,"senderblur":"Greetings"},{"durationblur":null,"senderblur":"Greetings"}],"sender":"Greetings","sender_type":"html.Form","sender_id":"0","":"","ended_on":"form submission","duration":19189,"time_run":4938,"time_render":17397,"time_show":17443,"time_end":36632,"time_commit":36633,"timestamp":"2021-12-31T12:03:28.895Z","time_switch":36702},{"SONA_ID":"5394","sender":"InformedConsent","sender_type":"html.Form","sender_id":"1","dummy_informedconsent":"1","":"","ended_on":"form submission","duration":11179,"time_run":36635,"time_render":36668,"time_show":36702,"time_end":47881,"time_commit":47881,"timestamp":"2021-12-31T12:03:40.144Z","time_switch":47906},{"sender":"InformedConsentNO","sender_type":"html.Form","sender_id":"2","ended_on":"skipped","duration":null,"time_run":47885,"time_end":47881,"time_commit":47886,"timestamp":"2021-12-31T12:03:40.148Z","time_switch":47906},{"sender":"ExclusionCriteria","sender_type":"html.Form","sender_id":"3","":"","ended_on":"form submission","duration":1782,"time_run":47886,"time_render":47893,"time_show":47906,"time_end":49688,"time_commit":49688,"timestamp":"2021-12-31T12:03:41.951Z","time_switch":49724},{"sender":"SetupStudy","sender_type":"html.Form","sender_id":"4","":"","ended_on":"form submission","duration":13435,"time_run":49688,"time_render":49707,"time_show":49724,"time_end":63159,"time_commit":63159,"timestamp":"2021-12-31T12:03:55.422Z","time_switch":63212},{"sender":"done","sender_type":"html.Screen","sender_id":"5","ended_on":null,"duration":185247,"time_run":63160.00000000001,"time_render":63197,"time_show":63212,"time_end":248459,"time_commit":248459,"timestamp":"2021-12-31T12:07:00.724Z","time_switch":248501},{"sender":"ScenarioText","sender_type":"html.Form","sender_id":"6","":"","ended_on":"form submission","duration":94356,"time_run":248460,"time_render":248484,"time_show":248501,"time_end":342857,"time_commit":342857,"timestamp":"2021-12-31T12:08:35.123Z","time_switch":342889},{"sender":"linkCAM","sender_type":"html.Screen","sender_id":"7","ended_on":"timeout","duration":7001,"time_run":342857,"time_render":342872,"time_show":342889,"time_end":349874,"time_commit":349875,"timestamp":"2021-12-31T12:08:42.140Z","time_switch":349890},{"sender":null,"sender_type":"flow.Sequence","sender_id":null,"ended_on":"completion","duration":332431,"time_run":4938,"time_render":17397,"time_show":17443,"time_end":349874,"time_commit":349875,"timestamp":"2021-12-31T12:08:42.141Z","time_switch":349890}]
[{"url":{"srid":"6562"},"meta":{"labjs_version":"20.2.4","labjs_build":{"flavor":"production","commit":"f5b4a49f956347addd546a832a3327688c2c0fef"},"location":"https://studien.psychologie.uni-freiburg.de/publix/323/346/start?srid=6562","userAgent":"Mozilla/5.0 (Windows NT 10.0; Win64; x64) AppleWebKit/537.36 (KHTML, like Gecko) Chrome/96.0.4664.110 Safari/537.36 OPR/82.0.4227.43","platform":"Win32","language":"de-DE","locale":"de","timeZone":"Europe/Berlin","timezoneOffset":-60,"screen_width":1368,"screen_height":912,"scroll_width":1328,"scroll_height":435,"window_innerWidth":1328,"window_innerHeight":771,"devicePixelRatio":2},"sender":"Greetings","sender_type":"html.Form","sender_id":"0","":"","ended_on":"form submission","duration":47857.55099995232,"time_run":1982.1999999284744,"time_render":1969.435,"time_show":2052.749,"time_end":49910.299999952316,"time_commit":49911.299999952316,"timestamp":"2021-12-31T09:56:51.480Z","time_switch":49940.558},{"SONA_ID":"1225","para_defocuscount":[{"durationblur":123.10000002384186,"senderblur":"InformedConsent"}],"sender":"InformedConsent","sender_type":"html.Form","sender_id":"1","dummy_informedconsent":"1","":"","ended_on":"form submission","duration":42983.942,"time_run":49912.89999997616,"time_render":49886.767,"time_show":49940.558,"time_end":92924.5,"time_commit":92925,"timestamp":"2021-12-31T09:57:34.495Z","time_switch":92927.319},{"sender":"InformedConsentNO","sender_type":"html.Form","sender_id":"2","ended_on":"skipped","duration":null,"time_run":92933.59999990463,"time_end":92924.5,"time_commit":92933.89999997616,"timestamp":"2021-12-31T09:57:34.504Z","time_switch":92927.319},{"sender":"ExclusionCriteria","sender_type":"html.Form","sender_id":"3","":"","ended_on":"form submission","duration":7629.080999976155,"time_run":92934.09999990463,"time_render":92910.829,"time_show":92927.319,"time_end":100556.39999997616,"time_commit":100556.89999997616,"timestamp":"2021-12-31T09:57:42.127Z","time_switch":100559.818},{"sender":"SetupStudy","sender_type":"html.Form","sender_id":"4","":"","ended_on":"form submission","duration":142216.88199992848,"time_run":100557.29999995232,"time_render":100552.349,"time_show":100559.818,"time_end":242776.69999992847,"time_commit":242777.69999992847,"timestamp":"2021-12-31T10:00:04.348Z","time_switch":242896.226},{"sender":"done","sender_type":"html.Screen","sender_id":"5","ended_on":null,"duration":331665.8739999046,"time_run":242778.09999990463,"time_render":242764.32,"time_show":242896.226,"time_end":574562.0999999046,"time_commit":574562.6999999285,"timestamp":"2021-12-31T10:05:36.132Z","time_switch":574599.49},{"sender":"ScenarioText","sender_type":"html.Form","sender_id":"6","":"","ended_on":"form submission","duration":98415.40999997617,"time_run":574563,"time_render":574549.738,"time_show":574599.49,"time_end":673014.8999999762,"time_commit":673015.5,"timestamp":"2021-12-31T10:07:14.586Z","time_switch":673017.294},{"sender":"linkCAM","sender_type":"html.Screen","sender_id":"7","ended_on":"timeout","duration":6995.748000000021,"time_run":673016,"time_render":673008.069,"time_show":673017.294,"time_end":679996.328,"time_commit":680004.2999999523,"timestamp":"2021-12-31T10:07:21.575Z","time_switch":680013.042},{"sender":null,"sender_type":"flow.Sequence","sender_id":null,"ended_on":"completion","duration":677943.579,"time_run":1981.7999999523163,"time_render":1969.435,"time_show":2052.749,"time_end":679996.328,"time_commit":680005.5,"timestamp":"2021-12-31T10:07:21.576Z","time_switch":680013.042}]
[{"url":{"srid":"6560"},"meta":{"labjs_version":"20.2.4","labjs_build":{"flavor":"production","commit":"f5b4a49f956347addd546a832a3327688c2c0fef"},"location":"https://studien.psychologie.uni-freiburg.de/publix/323/346/start?srid=6560","userAgent":"Mozilla/5.0 (Macintosh; Intel Mac OS X 10_15_6) AppleWebKit/605.1.15 (KHTML, like Gecko) Version/14.1.2 Safari/605.1.15","platform":"MacIntel","language":"de-de","locale":"de-DE","timeZone":"Europe/Berlin","timezoneOffset":-60,"screen_width":834,"screen_height":1112,"scroll_width":834,"scroll_height":435,"window_innerWidth":834,"window_innerHeight":1009,"devicePixelRatio":2},"para_defocuscount":[{"durationblur":1.0000000000009095,"senderblur":"Greetings"},{"durationblur":235,"senderblur":"Greetings"}],"sender":"Greetings","sender_type":"html.Form","sender_id":"0","":"","ended_on":"form submission","duration":15215,"time_run":2909.0000000000005,"time_render":2921,"time_show":2941,"time_end":18156,"time_commit":18156,"timestamp":"2021-12-31T04:25:51.708Z","time_switch":18194},{"SONA_ID":"4798","sender":"InformedConsent","sender_type":"html.Form","sender_id":"1","dummy_informedconsent":"1","":"","ended_on":"form submission","duration":6995,"time_run":18158,"time_render":18163,"time_show":18194,"time_end":25189,"time_commit":25190,"timestamp":"2021-12-31T04:25:58.742Z"}]
[{"url":{"srid":"6558"},"meta":{"labjs_version":"20.2.4","labjs_build":{"flavor":"production","commit":"f5b4a49f956347addd546a832a3327688c2c0fef"},"location":"https://studien.psychologie.uni-freiburg.de/publix/323/346/start?srid=6558","userAgent":"Mozilla/5.0 (Macintosh; Intel Mac OS X 10_15_6) AppleWebKit/605.1.15 (KHTML, like Gecko) Version/14.1.2 Safari/605.1.15","platform":"MacIntel","language":"de-de","locale":"de-DE","timeZone":"Europe/Berlin","timezoneOffset":-60,"screen_width":1024,"screen_height":1366,"scroll_width":1024,"scroll_height":435,"window_innerWidth":1024,"window_innerHeight":1259,"devicePixelRatio":2},"para_defocuscount":[{"durationblur":1,"senderblur":"Greetings"},{"durationblur":229.99999999999818,"senderblur":"Greetings"}],"sender":"Greetings","sender_type":"html.Form","sender_id":"0","":"","ended_on":"form submission","duration":93416,"time_run":1163,"time_render":1226,"time_show":1230,"time_end":94646,"time_commit":94646,"timestamp":"2021-12-30T13:52:15.832Z","time_switch":94661},{"SONA_ID":"5302","sender":"InformedConsent","sender_type":"html.Form","sender_id":"1","dummy_informedconsent":"1","":"","ended_on":"form submission","duration":57292,"time_run":94647,"time_render":94651,"time_show":94661,"time_end":151953,"time_commit":151954,"timestamp":"2021-12-30T13:53:13.138Z"}]
[{"url":{"srid":"6554"},"meta":{"labjs_version":"20.2.4","labjs_build":{"flavor":"production","commit":"f5b4a49f956347addd546a832a3327688c2c0fef"},"location":"https://studien.psychologie.uni-freiburg.de/publix/323/346/start?srid=6554","userAgent":"Mozilla/5.0 (Windows NT 10.0; Win64; x64; rv:95.0) Gecko/20100101 Firefox/95.0","platform":"Win32","language":"de","locale":"de-DE","timeZone":"Europe/Berlin","timezoneOffset":-60,"screen_width":1536,"screen_height":864,"scroll_width":1536,"scroll_height":435,"window_innerWidth":1536,"window_innerHeight":739,"devicePixelRatio":1.25},"para_defocuscount":[{"durationblur":1717,"senderblur":"Greetings"}],"sender":"Greetings","sender_type":"html.Form","sender_id":"0","":"","ended_on":"form submission","duration":56508.38,"time_run":1518,"time_render":1516.96,"time_show":1533.62,"time_end":58042,"time_commit":58044,"timestamp":"2021-12-29T18:53:55.909Z","time_switch":58053.2},{"SONA_ID":"5381","sender":"InformedConsent","sender_type":"html.Form","sender_id":"1","dummy_informedconsent":"1","":"","ended_on":"form submission","duration":22695.800000000003,"time_run":58047,"time_render":58013.4,"time_show":58053.2,"time_end":80749,"time_commit":80751,"timestamp":"2021-12-29T18:54:18.616Z","time_switch":80764.4},{"sender":"InformedConsentNO","sender_type":"html.Form","sender_id":"2","ended_on":"skipped","duration":null,"time_run":80759,"time_end":80749,"time_commit":80760,"timestamp":"2021-12-29T18:54:18.625Z","time_switch":80764.4},{"sender":"ExclusionCriteria","sender_type":"html.Form","sender_id":"3","":"","ended_on":"form submission","duration":10301.600000000006,"time_run":80760,"time_render":80743.2,"time_show":80764.4,"time_end":91066,"time_commit":91066,"timestamp":"2021-12-29T18:54:28.931Z","time_switch":91078.54},{"sender":"SetupStudy","sender_type":"html.Form","sender_id":"4","":"","ended_on":"form submission","duration":9297.460000000006,"time_run":91067,"time_render":91063.04,"time_show":91078.54,"time_end":100376,"time_commit":100376,"timestamp":"2021-12-29T18:54:38.241Z","time_switch":100442.9},{"sender":"done","sender_type":"html.Screen","sender_id":"5","ended_on":null,"duration":647386.1,"time_run":100377,"time_render":100373.22,"time_show":100442.9,"time_end":747829,"time_commit":747829,"timestamp":"2021-12-29T19:05:25.694Z","time_switch":747835.62},{"sender":"ScenarioText","sender_type":"html.Form","sender_id":"6","":"","ended_on":"form submission","duration":118273.38,"time_run":747830,"time_render":747829.96,"time_show":747835.62,"time_end":866109,"time_commit":866110,"timestamp":"2021-12-29T19:07:23.975Z","time_switch":866106.94},{"sender":"linkCAM","sender_type":"html.Screen","sender_id":"7","ended_on":"timeout","duration":6998.320000000065,"time_run":866111,"time_render":866105.74,"time_show":866106.94,"time_end":873088.6,"time_commit":873090,"timestamp":"2021-12-29T19:07:30.955Z","time_switch":873105.26},{"sender":null,"sender_type":"flow.Sequence","sender_id":null,"ended_on":"completion","duration":871554.98,"time_run":1518,"time_render":1516.96,"time_show":1533.62,"time_end":873088.6,"time_commit":873091,"timestamp":"2021-12-29T19:07:30.956Z","time_switch":873105.26}]
[{"url":{"srid":"6545"},"meta":{"labjs_version":"20.2.4","labjs_build":{"flavor":"production","commit":"f5b4a49f956347addd546a832a3327688c2c0fef"},"location":"https://studien.psychologie.uni-freiburg.de/publix/323/346/start?srid=6545","userAgent":"Mozilla/5.0 (Windows NT 10.0; Win64; x64) AppleWebKit/537.36 (KHTML, like Gecko) Chrome/96.0.4664.110 Safari/537.36 Edg/96.0.1054.62","platform":"Win32","language":"de","locale":"de","timeZone":"Europe/Berlin","timezoneOffset":-60,"screen_width":1280,"screen_height":720,"scroll_width":1280,"scroll_height":435,"window_innerWidth":1280,"window_innerHeight":609,"devicePixelRatio":1.5},"para_defocuscount":[{"durationblur":396304.7000000477,"senderblur":"Greetings"}],"sender":"Greetings","sender_type":"html.Form","sender_id":"0","":"","ended_on":"form submission","duration":453481.93899995234,"time_run":1119.7999999523163,"time_render":1127.422,"time_show":1177.361,"time_end":454659.2999999523,"time_commit":454662,"timestamp":"2021-12-28T12:26:14.334Z","time_switch":454677.514},{"SONA_ID":"5324","sender":"InformedConsent","sender_type":"html.Form","sender_id":"1","dummy_informedconsent":"1","":"","ended_on":"form submission","duration":42430.08600002382,"time_run":454665.2999999523,"time_render":454644.309,"time_show":454677.514,"time_end":497107.60000002384,"time_commit":497108.39999997616,"timestamp":"2021-12-28T12:26:56.781Z","time_switch":497142.595},{"sender":"InformedConsentNO","sender_type":"html.Form","sender_id":"2","ended_on":"skipped","duration":null,"time_run":497136.1999999285,"time_end":497107.60000002384,"time_commit":497137.10000002384,"timestamp":"2021-12-28T12:26:56.810Z","time_switch":497142.595},{"sender":"ExclusionCriteria","sender_type":"html.Form","sender_id":"3","":"","ended_on":"form submission","duration":12583.00500002387,"time_run":497137.6999999285,"time_render":497092.707,"time_show":497142.595,"time_end":509725.60000002384,"time_commit":509726,"timestamp":"2021-12-28T12:27:09.399Z","time_switch":509732.206},{"sender":"SetupStudy","sender_type":"html.Form","sender_id":"4","":"","ended_on":"form submission","duration":12696.394000023836,"time_run":509726.10000002384,"time_render":509715.573,"time_show":509732.206,"time_end":522428.60000002384,"time_commit":522429.2999999523,"timestamp":"2021-12-28T12:27:22.102Z","time_switch":522488.378},{"sender":"done","sender_type":"html.Screen","sender_id":"5","ended_on":null,"duration":424630.7220000238,"time_run":522430.1999999285,"time_render":522421.754,"time_show":522488.378,"time_end":947119.1000000238,"time_commit":947119.6000000238,"timestamp":"2021-12-28T12:34:26.792Z","time_switch":947172.267},{"sender":"ScenarioText","sender_type":"html.Form","sender_id":"6","":"","ended_on":"form submission","duration":110629.03299995232,"time_run":947120.7999999523,"time_render":947105.724,"time_show":947172.267,"time_end":1057801.2999999523,"time_commit":1057802,"timestamp":"2021-12-28T12:36:17.475Z","time_switch":1057814.539},{"sender":"linkCAM","sender_type":"html.Screen","sender_id":"7","ended_on":"timeout","duration":6994.265999999829,"time_run":1057802.5,"time_render":1057798.087,"time_show":1057814.539,"time_end":1064792.148,"time_commit":1064804,"timestamp":"2021-12-28T12:36:24.476Z","time_switch":1064808.805},{"sender":null,"sender_type":"flow.Sequence","sender_id":null,"ended_on":"completion","duration":1063614.787,"time_run":1119.1999999284744,"time_render":1127.422,"time_show":1177.361,"time_end":1064792.148,"time_commit":1064805.1000000238,"timestamp":"2021-12-28T12:36:24.478Z","time_switch":1064808.805}]
[{"url":{"srid":"6539"},"meta":{"labjs_version":"20.2.4","labjs_build":{"flavor":"production","commit":"f5b4a49f956347addd546a832a3327688c2c0fef"},"location":"https://studien.psychologie.uni-freiburg.de/publix/323/346/start?srid=6539","userAgent":"Mozilla/5.0 (Windows NT 10.0; Win64; x64; rv:95.0) Gecko/20100101 Firefox/95.0","platform":"Win32","language":"de","locale":"de-DE","timeZone":"Europe/Berlin","timezoneOffset":-60,"screen_width":1366,"screen_height":768,"scroll_width":1366,"scroll_height":435,"window_innerWidth":1366,"window_innerHeight":643,"devicePixelRatio":1},"sender":"Greetings","sender_type":"html.Form","sender_id":"0","":"","ended_on":"form submission","duration":5031.94,"time_run":4727,"time_render":4727.36,"time_show":4741.06,"time_end":9773,"time_commit":9774,"timestamp":"2021-12-27T11:31:19.131Z","time_switch":9772.16},{"SONA_ID":"4819","sender":"InformedConsent","sender_type":"html.Form","sender_id":"1","dummy_informedconsent":"1","":"","ended_on":"form submission","duration":14670.84,"time_run":9777,"time_render":9756.4,"time_show":9772.16,"time_end":24443,"time_commit":24444,"timestamp":"2021-12-27T11:31:33.801Z","time_switch":24446.16},{"sender":"InformedConsentNO","sender_type":"html.Form","sender_id":"2","ended_on":"skipped","duration":null,"time_run":24450,"time_end":24443,"time_commit":24450,"timestamp":"2021-12-27T11:31:33.808Z","time_switch":24446.16},{"sender":"ExclusionCriteria","sender_type":"html.Form","sender_id":"3","":"","ended_on":"form submission","duration":3960.84,"time_run":24451,"time_render":24438.52,"time_show":24446.16,"time_end":28407,"time_commit":28408,"timestamp":"2021-12-27T11:31:37.764Z","time_switch":28419.18},{"sender":"SetupStudy","sender_type":"html.Form","sender_id":"4","":"","ended_on":"form submission","duration":8010.82,"time_run":28408,"time_render":28405.7,"time_show":28419.18,"time_end":36430,"time_commit":36431,"timestamp":"2021-12-27T11:31:45.788Z","time_switch":36444.9},{"sender":"done","sender_type":"html.Screen","sender_id":"5","ended_on":null,"duration":233062.1,"time_run":36431,"time_render":36428.52,"time_show":36444.9,"time_end":269507,"time_commit":269509,"timestamp":"2021-12-27T11:35:38.866Z","time_switch":269531.68},{"sender":"ScenarioText","sender_type":"html.Form","sender_id":"6","":"","ended_on":"form submission","duration":92978.32,"time_run":269512,"time_render":269512.48,"time_show":269531.68,"time_end":362510,"time_commit":362512,"timestamp":"2021-12-27T11:37:11.869Z","time_switch":362526.74},{"sender":"linkCAM","sender_type":"html.Screen","sender_id":"7","ended_on":"timeout","duration":7007.760000000009,"time_run":362514,"time_render":362506.06,"time_show":362526.74,"time_end":369514.54,"time_commit":369516,"timestamp":"2021-12-27T11:37:18.873Z","time_switch":369534.5},{"sender":null,"sender_type":"flow.Sequence","sender_id":null,"ended_on":"completion","duration":364773.48,"time_run":4727,"time_render":4727.36,"time_show":4741.06,"time_end":369514.54,"time_commit":369518,"timestamp":"2021-12-27T11:37:18.875Z","time_switch":369534.5}]
[{"url":{"srid":"6534"},"meta":{"labjs_version":"20.2.4","labjs_build":{"flavor":"production","commit":"f5b4a49f956347addd546a832a3327688c2c0fef"},"location":"https://studien.psychologie.uni-freiburg.de/publix/323/346/start?srid=6534","userAgent":"Mozilla/5.0 (Macintosh; Intel Mac OS X 10.15; rv:95.0) Gecko/20100101 Firefox/95.0","platform":"MacIntel","language":"de","locale":"de-DE","timeZone":"Europe/Berlin","timezoneOffset":-60,"screen_width":1971,"screen_height":1232,"scroll_width":1971,"scroll_height":435,"window_innerWidth":1971,"window_innerHeight":1001,"devicePixelRatio":1.8181818181818181},"sender":"Greetings","sender_type":"html.Form","sender_id":"0","":"","ended_on":"form submission","duration":52308.9,"time_run":566,"time_render":558.32,"time_show":575.1,"time_end":52884,"time_commit":52884,"timestamp":"2021-12-26T19:42:57.508Z","time_switch":52876.82},{"SONA_ID":"4766","sender":"InformedConsent","sender_type":"html.Form","sender_id":"1","dummy_informedconsent":"1","":"","ended_on":"form submission","duration":16609.18,"time_run":52885,"time_render":52876,"time_show":52876.82,"time_end":69486,"time_commit":69486,"timestamp":"2021-12-26T19:43:14.110Z","time_switch":69485.44},{"sender":"InformedConsentNO","sender_type":"html.Form","sender_id":"2","ended_on":"skipped","duration":null,"time_run":69489,"time_end":69486,"time_commit":69489,"timestamp":"2021-12-26T19:43:14.113Z","time_switch":69485.44},{"sender":"ExclusionCriteria","sender_type":"html.Form","sender_id":"3","":"","ended_on":"form submission","duration":16478.559999999998,"time_run":69489,"time_render":69484.64,"time_show":69485.44,"time_end":85964,"time_commit":85965,"timestamp":"2021-12-26T19:43:30.590Z","time_switch":85963.6},{"sender":"SetupStudy","sender_type":"html.Form","sender_id":"4","":"","ended_on":"form submission","duration":21919.399999999994,"time_run":85965,"time_render":85962.9,"time_show":85963.6,"time_end":107883,"time_commit":107884,"timestamp":"2021-12-26T19:43:52.508Z","time_switch":107882.96},{"sender":"done","sender_type":"html.Screen","sender_id":"5","ended_on":null,"duration":650373.04,"time_run":107884,"time_render":107882.26,"time_show":107882.96,"time_end":758256,"time_commit":758256,"timestamp":"2021-12-26T19:54:42.889Z","time_switch":758257.64},{"sender":"ScenarioText","sender_type":"html.Form","sender_id":"6","":"","ended_on":"form submission","duration":222064.36,"time_run":758257,"time_render":758256.44,"time_show":758257.64,"time_end":980322,"time_commit":980322,"timestamp":"2021-12-26T19:58:24.957Z","time_switch":980320.62},{"sender":"linkCAM","sender_type":"html.Screen","sender_id":"7","ended_on":"timeout","duration":6995.040000000037,"time_run":980322,"time_render":980319.86,"time_show":980320.62,"time_end":987298.66,"time_commit":987299,"timestamp":"2021-12-26T19:58:31.935Z","time_switch":987315.66},{"sender":null,"sender_type":"flow.Sequence","sender_id":null,"ended_on":"completion","duration":986723.56,"time_run":566,"time_render":558.32,"time_show":575.1,"time_end":987298.66,"time_commit":987300,"timestamp":"2021-12-26T19:58:31.935Z","time_switch":987315.66}]
[{"url":{"srid":"6530"},"meta":{"labjs_version":"20.2.4","labjs_build":{"flavor":"production","commit":"f5b4a49f956347addd546a832a3327688c2c0fef"},"location":"https://studien.psychologie.uni-freiburg.de/publix/323/346/start?srid=6530","userAgent":"Mozilla/5.0 (Windows NT 10.0; Win64; x64) AppleWebKit/537.36 (KHTML, like Gecko) Chrome/96.0.4664.110 Safari/537.36 Edg/96.0.1054.62","platform":"Win32","language":"de","locale":"de","timeZone":"Europe/Berlin","timezoneOffset":-60,"screen_width":1536,"screen_height":864,"scroll_width":1101,"scroll_height":436,"window_innerWidth":1101,"window_innerHeight":980,"devicePixelRatio":0.9399999380111694},"sender":"Greetings","sender_type":"html.Form","sender_id":"0","":"","ended_on":"form submission","duration":19206.222,"time_run":779.1000000014901,"time_render":793.613,"time_show":810.278,"time_end":20016.5,"time_commit":20017.10000000149,"timestamp":"2021-12-26T17:36:21.633Z","time_switch":20038.97},{"SONA_ID":"4200","sender":"InformedConsent","sender_type":"html.Form","sender_id":"1","dummy_informedconsent":"1","":"","ended_on":"form submission","duration":5734.130000001489,"time_run":20018.5,"time_render":20005.735,"time_show":20038.97,"time_end":25773.10000000149,"time_commit":25773.699999999255,"timestamp":"2021-12-26T17:36:27.389Z","time_switch":25787.587},{"sender":"InformedConsentNO","sender_type":"html.Form","sender_id":"2","ended_on":"skipped","duration":null,"time_run":25789.5,"time_end":25773.10000000149,"time_commit":25789.900000002235,"timestamp":"2021-12-26T17:36:27.406Z","time_switch":25787.587},{"sender":"ExclusionCriteria","sender_type":"html.Form","sender_id":"3","":"","ended_on":"form submission","duration":5334.9130000000005,"time_run":25790.5,"time_render":25771.05,"time_show":25787.587,"time_end":31122.5,"time_commit":31122.900000002235,"timestamp":"2021-12-26T17:36:32.739Z","time_switch":31136.254},{"sender":"SetupStudy","sender_type":"html.Form","sender_id":"4","":"","ended_on":"form submission","duration":19065.646000002234,"time_run":31123.199999999255,"time_render":31119.707,"time_show":31136.254,"time_end":50201.900000002235,"time_commit":50202.5,"timestamp":"2021-12-26T17:36:51.818Z","time_switch":50231.583},{"sender":"done","sender_type":"html.Screen","sender_id":"5","ended_on":null,"duration":987813.8170000023,"time_run":50202.699999999255,"time_render":50198.399,"time_show":50231.583,"time_end":1038045.4000000022,"time_commit":1038046,"timestamp":"2021-12-26T17:53:19.662Z","time_switch":1038056.607},{"sender":"ScenarioText","sender_type":"html.Form","sender_id":"6","":"","ended_on":"form submission","duration":146523.5929999993,"time_run":1038046.9000000022,"time_render":1038042.023,"time_show":1038056.607,"time_end":1184580.1999999993,"time_commit":1184580.8000000007,"timestamp":"2021-12-26T17:55:46.197Z","time_switch":1184587.379},{"sender":"linkCAM","sender_type":"html.Screen","sender_id":"7","ended_on":"timeout","duration":6998.434000000125,"time_run":1184581.1999999993,"time_render":1184570.809,"time_show":1184587.379,"time_end":1191569.154,"time_commit":1191577.1999999993,"timestamp":"2021-12-26T17:55:53.193Z","time_switch":1191585.813},{"sender":null,"sender_type":"flow.Sequence","sender_id":null,"ended_on":"completion","duration":1190758.8760000002,"time_run":778.9000000022352,"time_render":793.613,"time_show":810.278,"time_end":1191569.154,"time_commit":1191578.4000000022,"timestamp":"2021-12-26T17:55:53.194Z","time_switch":1191585.813}]
[{"url":{"srid":"6524"},"meta":{"labjs_version":"20.2.4","labjs_build":{"flavor":"production","commit":"f5b4a49f956347addd546a832a3327688c2c0fef"},"location":"https://studien.psychologie.uni-freiburg.de/publix/323/346/start?srid=6524","userAgent":"Mozilla/5.0 (Windows NT 10.0; Win64; x64) AppleWebKit/537.36 (KHTML, like Gecko) Chrome/96.0.4664.110 Safari/537.36","platform":"Win32","language":"de-DE","locale":"de","timeZone":"Europe/Berlin","timezoneOffset":-60,"screen_width":1536,"screen_height":864,"scroll_width":1536,"scroll_height":436,"window_innerWidth":1536,"window_innerHeight":754,"devicePixelRatio":1.25},"sender":"Greetings","sender_type":"html.Form","sender_id":"0","":"","ended_on":"form submission","duration":64561.83400001192,"time_run":1884.300000011921,"time_render":1880.468,"time_show":1980.466,"time_end":66542.30000001192,"time_commit":66544.5,"timestamp":"2021-12-26T13:55:44.405Z","time_switch":66581.458},{"SONA_ID":"4754","sender":"InformedConsent","sender_type":"html.Form","sender_id":"1","dummy_informedconsent":"1","":"","ended_on":"form submission","duration":14516.842000011922,"time_run":66546.5,"time_render":66498.507,"time_show":66581.458,"time_end":81098.30000001192,"time_commit":81110,"timestamp":"2021-12-26T13:55:58.971Z","time_switch":81127.914},{"sender":"InformedConsentNO","sender_type":"html.Form","sender_id":"2","ended_on":"skipped","duration":null,"time_run":81120.90000003576,"time_end":81098.30000001192,"time_commit":81121.40000003576,"timestamp":"2021-12-26T13:55:58.982Z","time_switch":81127.914},{"sender":"ExclusionCriteria","sender_type":"html.Form","sender_id":"3","":"","ended_on":"form submission","duration":5671.285999988075,"time_run":81122.10000002384,"time_render":81078.018,"time_show":81127.914,"time_end":86799.19999998808,"time_commit":86800.19999998808,"timestamp":"2021-12-26T13:56:04.661Z","time_switch":86809.884},{"sender":"SetupStudy","sender_type":"html.Form","sender_id":"4","":"","ended_on":"form submission","duration":25917.216000023836,"time_run":86800.69999998808,"time_render":86793.513,"time_show":86809.884,"time_end":112727.10000002384,"time_commit":112728.80000001192,"timestamp":"2021-12-26T13:56:30.587Z","time_switch":112870.237},{"sender":"done","sender_type":"html.Screen","sender_id":"5","ended_on":null,"duration":347110.56300001196,"time_run":112729.40000003576,"time_render":112703.589,"time_show":112870.237,"time_end":459980.8000000119,"time_commit":459981.6999999881,"timestamp":"2021-12-26T14:02:17.840Z","time_switch":460036.135},{"sender":"ScenarioText","sender_type":"html.Form","sender_id":"6","":"","ended_on":"form submission","duration":127876.66500001191,"time_run":459982.3000000119,"time_render":459970.103,"time_show":460036.135,"time_end":587912.8000000119,"time_commit":587913.6999999881,"timestamp":"2021-12-26T14:04:25.772Z","time_switch":587921.781},{"sender":"linkCAM","sender_type":"html.Screen","sender_id":"7","ended_on":"timeout","duration":6998.565999999992,"time_run":587914.1000000238,"time_render":587905.194,"time_show":587921.781,"time_end":594903.679,"time_commit":594912.8000000119,"timestamp":"2021-12-26T14:04:32.771Z","time_switch":594920.347},{"sender":null,"sender_type":"flow.Sequence","sender_id":null,"ended_on":"completion","duration":592923.213,"time_run":1883.6000000238419,"time_render":1880.468,"time_show":1980.466,"time_end":594903.679,"time_commit":594914.4000000358,"timestamp":"2021-12-26T14:04:32.773Z","time_switch":594920.347}]
[{"url":{"srid":"6520"},"meta":{"labjs_version":"20.2.4","labjs_build":{"flavor":"production","commit":"f5b4a49f956347addd546a832a3327688c2c0fef"},"location":"https://studien.psychologie.uni-freiburg.de/publix/323/346/start?srid=6520","userAgent":"Mozilla/5.0 (Macintosh; Intel Mac OS X 10_15_7) AppleWebKit/537.36 (KHTML, like Gecko) Chrome/96.0.4664.93 Safari/537.36","platform":"MacIntel","language":"de-DE","locale":"de","timeZone":"Europe/Athens","timezoneOffset":-120,"screen_width":1440,"screen_height":900,"scroll_width":1194,"scroll_height":435,"window_innerWidth":1194,"window_innerHeight":676,"devicePixelRatio":2},"sender":"Greetings","sender_type":"html.Form","sender_id":"0","":"","ended_on":"form submission","duration":31843.33199997616,"time_run":1516.300000011921,"time_render":1513.902,"time_show":1530.568,"time_end":33373.89999997616,"time_commit":33374.30000001192,"timestamp":"2021-12-25T23:24:09.703Z","time_switch":33374.481},{"SONA_ID":"4907","sender":"InformedConsent","sender_type":"html.Form","sender_id":"1","dummy_informedconsent":"1","":"","ended_on":"form submission","duration":6787.819000011921,"time_run":33375.10000002384,"time_render":33357.815,"time_show":33374.481,"time_end":40162.30000001192,"time_commit":40162.5,"timestamp":"2021-12-25T23:24:16.491Z"}]
[{"url":{"srid":"6515"},"meta":{"labjs_version":"20.2.4","labjs_build":{"flavor":"production","commit":"f5b4a49f956347addd546a832a3327688c2c0fef"},"location":"https://studien.psychologie.uni-freiburg.de/publix/323/346/start?srid=6515","userAgent":"Mozilla/5.0 (Windows NT 10.0; Win64; x64) AppleWebKit/537.36 (KHTML, like Gecko) Chrome/96.0.4664.110 Safari/537.36","platform":"Win32","language":"de-DE","locale":"de","timeZone":"Europe/Berlin","timezoneOffset":-60,"screen_width":1280,"screen_height":720,"scroll_width":1280,"scroll_height":435,"window_innerWidth":1280,"window_innerHeight":577,"devicePixelRatio":1.5},"para_defocuscount":[{"durationblur":234.10000002384186,"senderblur":"Greetings"}],"sender":"Greetings","sender_type":"html.Form","sender_id":"0","":"","ended_on":"form submission","duration":31453.072000047683,"time_run":3372.399999976158,"time_render":3375.571,"time_show":3442.128,"time_end":34895.200000047684,"time_commit":34895.89999997616,"timestamp":"2021-12-25T18:21:01.191Z","time_switch":34908.563},{"SONA_ID":"5363","sender":"InformedConsent","sender_type":"html.Form","sender_id":"1","dummy_informedconsent":"1","":"","ended_on":"form submission","duration":7341.137000047682,"time_run":34898,"time_render":34875.262,"time_show":34908.563,"time_end":42249.700000047684,"time_commit":42250.10000002384,"timestamp":"2021-12-25T18:21:08.545Z","time_switch":42255.014},{"sender":"InformedConsentNO","sender_type":"html.Form","sender_id":"2","ended_on":"skipped","duration":null,"time_run":42261.200000047684,"time_end":42249.700000047684,"time_commit":42261.5,"timestamp":"2021-12-25T18:21:08.557Z","time_switch":42255.014},{"sender":"ExclusionCriteria","sender_type":"html.Form","sender_id":"3","":"","ended_on":"form submission","duration":1843.3859999761553,"time_run":42261.60000002384,"time_render":42237.572,"time_show":42255.014,"time_end":44098.39999997616,"time_commit":44098.60000002384,"timestamp":"2021-12-25T18:21:10.394Z","time_switch":44103.944},{"sender":"SetupStudy","sender_type":"html.Form","sender_id":"4","":"","ended_on":"form submission","duration":9028.856000071522,"time_run":44098.89999997616,"time_render":44086.864,"time_show":44103.944,"time_end":53132.800000071526,"time_commit":53133.200000047684,"timestamp":"2021-12-25T18:21:19.428Z","time_switch":53181.429},{"sender":"done","sender_type":"html.Screen","sender_id":"5","ended_on":null,"duration":128059.37100007152,"time_run":53133.300000071526,"time_render":53157.872,"time_show":53181.429,"time_end":181240.80000007153,"time_commit":181241.20000004768,"timestamp":"2021-12-25T18:23:27.541Z","time_switch":181261},{"sender":"ScenarioText","sender_type":"html.Form","sender_id":"6","":"","ended_on":"form submission","duration":91688.39999997616,"time_run":181241.39999997616,"time_render":181227.767,"time_show":181261,"time_end":272949.39999997616,"time_commit":272949.60000002384,"timestamp":"2021-12-25T18:24:59.249Z","time_switch":272961.235},{"sender":"linkCAM","sender_type":"html.Screen","sender_id":"7","ended_on":"timeout","duration":6995.662000000011,"time_run":272949.89999997616,"time_render":272943.769,"time_show":272961.235,"time_end":279939.845,"time_commit":279951.89999997616,"timestamp":"2021-12-25T18:25:06.251Z","time_switch":279956.897},{"sender":null,"sender_type":"flow.Sequence","sender_id":null,"ended_on":"completion","duration":276497.71699999995,"time_run":3372,"time_render":3375.571,"time_show":3442.128,"time_end":279939.845,"time_commit":279952.3000000715,"timestamp":"2021-12-25T18:25:06.252Z","time_switch":279956.897}]
[{"url":{"srid":"6514"},"meta":{"labjs_version":"20.2.4","labjs_build":{"flavor":"production","commit":"f5b4a49f956347addd546a832a3327688c2c0fef"},"location":"https://studien.psychologie.uni-freiburg.de/publix/323/346/start?srid=6514","userAgent":"Mozilla/5.0 (Macintosh; Intel Mac OS X 10_15_7) AppleWebKit/605.1.15 (KHTML, like Gecko) Version/15.2 Safari/605.1.15","platform":"MacIntel","language":"de-DE","locale":"de-DE","timeZone":"Europe/Berlin","timezoneOffset":-60,"screen_width":1440,"screen_height":900,"scroll_width":1440,"scroll_height":435,"window_innerWidth":1440,"window_innerHeight":820,"devicePixelRatio":2},"para_defocuscount":[{"durationblur":506114,"senderblur":"Greetings"},{"durationblur":3658715,"senderblur":"Greetings"}],"sender":"Greetings","sender_type":"html.Form","sender_id":"0","":"","ended_on":"form submission","duration":4406959,"time_run":2580,"time_render":2605,"time_show":2612,"time_end":4409571,"time_commit":4409572,"timestamp":"2021-12-26T11:32:31.711Z","time_switch":4409618},{"SONA_ID":"4780","sender":"InformedConsent","sender_type":"html.Form","sender_id":"1","dummy_informedconsent":"1","":"","ended_on":"form submission","duration":9812,"time_run":4409574.000000001,"time_render":4409582,"time_show":4409618,"time_end":4419430,"time_commit":4419431.000000001,"timestamp":"2021-12-26T11:32:41.570Z","time_switch":4419470},{"sender":"InformedConsentNO","sender_type":"html.Form","sender_id":"2","ended_on":"skipped","duration":null,"time_run":4419438,"time_end":4419430,"time_commit":4419438,"timestamp":"2021-12-26T11:32:41.577Z","time_switch":4419470},{"sender":"ExclusionCriteria","sender_type":"html.Form","sender_id":"3","":"","ended_on":"form submission","duration":10857,"time_run":4419438,"time_render":4419454,"time_show":4419470,"time_end":4430327,"time_commit":4430327,"timestamp":"2021-12-26T11:32:52.467Z","time_switch":4430346},{"sender":"SetupStudy","sender_type":"html.Form","sender_id":"4","":"","ended_on":"form submission","duration":13040,"time_run":4430327,"time_render":4430330,"time_show":4430346,"time_end":4443386,"time_commit":4443386,"timestamp":"2021-12-26T11:33:05.526Z","time_switch":4443421},{"sender":"done","sender_type":"html.Screen","sender_id":"5","ended_on":null,"duration":358893,"time_run":4443387,"time_render":4443405,"time_show":4443421,"time_end":4802314,"time_commit":4802315.000000001,"timestamp":"2021-12-26T11:39:04.459Z","time_switch":4802350},{"sender":"ScenarioText","sender_type":"html.Form","sender_id":"6","":"","ended_on":"form submission","duration":210126,"time_run":4802315.000000001,"time_render":4802334,"time_show":4802350,"time_end":5012476,"time_commit":5012477,"timestamp":"2021-12-26T11:42:34.624Z","time_switch":5012511},{"sender":"linkCAM","sender_type":"html.Screen","sender_id":"7","ended_on":"timeout","duration":6995,"time_run":5012477,"time_render":5012495,"time_show":5012511,"time_end":5019490,"time_commit":5019491,"timestamp":"2021-12-26T11:42:41.638Z","time_switch":5019506},{"sender":null,"sender_type":"flow.Sequence","sender_id":null,"ended_on":"completion","duration":5016878,"time_run":2580,"time_render":2605,"time_show":2612,"time_end":5019490,"time_commit":5019492,"timestamp":"2021-12-26T11:42:41.639Z","time_switch":5019506}]
[{"url":{"srid":"6510"},"meta":{"labjs_version":"20.2.4","labjs_build":{"flavor":"production","commit":"f5b4a49f956347addd546a832a3327688c2c0fef"},"location":"https://studien.psychologie.uni-freiburg.de/publix/323/346/start?srid=6510","userAgent":"Mozilla/5.0 (Windows NT 10.0; Win64; x64) AppleWebKit/537.36 (KHTML, like Gecko) Chrome/96.0.4664.110 Safari/537.36","platform":"Win32","language":"de-DE","locale":"de","timeZone":"Europe/Berlin","timezoneOffset":-60,"screen_width":1366,"screen_height":768,"scroll_width":1366,"scroll_height":435,"window_innerWidth":1366,"window_innerHeight":657,"devicePixelRatio":1},"sender":"Greetings","sender_type":"html.Form","sender_id":"0","":"","ended_on":"form submission","duration":105302.34199997615,"time_run":1960,"time_render":1955.313,"time_show":1988.558,"time_end":107290.89999997616,"time_commit":107292.30000007153,"timestamp":"2021-12-25T10:53:06.802Z","time_switch":107336.213},{"SONA_ID":"5482","sender":"InformedConsent","sender_type":"html.Form","sender_id":"1","dummy_informedconsent":"1","":"","ended_on":"form submission","duration":35609.38700002384,"time_run":107295.70000004768,"time_render":107269.54,"time_show":107336.213,"time_end":142945.60000002384,"time_commit":142946.10000002384,"timestamp":"2021-12-25T10:53:42.456Z","time_switch":142968.954},{"sender":"InformedConsentNO","sender_type":"html.Form","sender_id":"2","ended_on":"skipped","duration":null,"time_run":142965.30000007153,"time_end":142945.60000002384,"time_commit":142966.10000002384,"timestamp":"2021-12-25T10:53:42.476Z","time_switch":142968.954},{"sender":"ExclusionCriteria","sender_type":"html.Form","sender_id":"3","":"","ended_on":"form submission","duration":13945.346000071528,"time_run":142966.70000004768,"time_render":142935.826,"time_show":142968.954,"time_end":156914.30000007153,"time_commit":156914.80000007153,"timestamp":"2021-12-25T10:53:56.425Z","time_switch":156925.224},{"sender":"SetupStudy","sender_type":"html.Form","sender_id":"4","":"","ended_on":"form submission","duration":24450.776000000013,"time_run":156915.30000007153,"time_render":156908.908,"time_show":156925.224,"time_end":181376,"time_commit":181376.60000002384,"timestamp":"2021-12-25T10:54:20.887Z","time_switch":181486.323},{"sender":"done","sender_type":"html.Screen","sender_id":"5","ended_on":null,"duration":458972.3770000477,"time_run":181377,"time_render":181369.749,"time_show":181486.323,"time_end":640458.7000000477,"time_commit":640459.3000000715,"timestamp":"2021-12-25T11:01:59.969Z","time_switch":640493.545},{"sender":"ScenarioText","sender_type":"html.Form","sender_id":"6","":"","ended_on":"form submission","duration":125056.25500007148,"time_run":640459.8999999762,"time_render":640476.882,"time_show":640493.545,"time_end":765549.8000000715,"time_commit":765551.8000000715,"timestamp":"2021-12-25T11:04:05.062Z","time_switch":765550.03},{"sender":"linkCAM","sender_type":"html.Screen","sender_id":"7","ended_on":"timeout","duration":7003.527000000002,"time_run":765552.2000000477,"time_render":765533.577,"time_show":765550.03,"time_end":772536.693,"time_commit":772545.1000000238,"timestamp":"2021-12-25T11:04:12.055Z","time_switch":772553.557},{"sender":null,"sender_type":"flow.Sequence","sender_id":null,"ended_on":"completion","duration":770548.135,"time_run":1959.3000000715256,"time_render":1955.313,"time_show":1988.558,"time_end":772536.693,"time_commit":772546,"timestamp":"2021-12-25T11:04:12.056Z","time_switch":772553.557}]
[{"url":{"srid":"6507"},"meta":{"labjs_version":"20.2.4","labjs_build":{"flavor":"production","commit":"f5b4a49f956347addd546a832a3327688c2c0fef"},"location":"https://studien.psychologie.uni-freiburg.de/publix/323/346/start?srid=6507","userAgent":"Mozilla/5.0 (Windows NT 10.0; Win64; x64; rv:95.0) Gecko/20100101 Firefox/95.0","platform":"Win32","language":"de","locale":"de-DE","timeZone":"Europe/Berlin","timezoneOffset":-60,"screen_width":1536,"screen_height":864,"scroll_width":1536,"scroll_height":435,"window_innerWidth":1536,"window_innerHeight":711,"devicePixelRatio":1.25},"sender":"Greetings","sender_type":"html.Form","sender_id":"0","":"","ended_on":"form submission","duration":62033.92,"time_run":2995,"time_render":3026.42,"time_show":3143.08,"time_end":65177,"time_commit":65179,"timestamp":"2021-12-24T14:40:11.597Z","time_switch":65178},{"SONA_ID":"4790","sender":"InformedConsent","sender_type":"html.Form","sender_id":"1","dummy_informedconsent":"1","":"","ended_on":"form submission","duration":52643,"time_run":65182,"time_render":65021.08,"time_show":65178,"time_end":117821,"time_commit":117823,"timestamp":"2021-12-24T14:41:04.241Z","time_switch":117948.48},{"sender":"InformedConsentNO","sender_type":"html.Form","sender_id":"2","ended_on":"skipped","duration":null,"time_run":117835,"time_end":117821,"time_commit":117836,"timestamp":"2021-12-24T14:41:04.253Z","time_switch":117948.48},{"sender":"ExclusionCriteria","sender_type":"html.Form","sender_id":"3","":"","ended_on":"form submission","duration":15196.520000000004,"time_run":117836,"time_render":117810.8,"time_show":117948.48,"time_end":133145,"time_commit":133146,"timestamp":"2021-12-24T14:41:19.564Z","time_switch":133144.8},{"sender":"SetupStudy","sender_type":"html.Form","sender_id":"4","":"","ended_on":"form submission","duration":24099.20000000001,"time_run":133146,"time_render":133140.96,"time_show":133144.8,"time_end":157244,"time_commit":157245,"timestamp":"2021-12-24T14:41:43.662Z","time_switch":157505.48},{"sender":"done","sender_type":"html.Screen","sender_id":"5","ended_on":null,"duration":587551.52,"time_run":157245,"time_render":157241.08,"time_show":157505.48,"time_end":745057,"time_commit":745057,"timestamp":"2021-12-24T14:51:31.475Z","time_switch":745162.28},{"sender":"ScenarioText","sender_type":"html.Form","sender_id":"6","":"","ended_on":"form submission","duration":405773.72,"time_run":745057,"time_render":745057.26,"time_show":745162.28,"time_end":1150936,"time_commit":1150936,"timestamp":"2021-12-24T14:58:17.354Z","time_switch":1150946.66},{"sender":"linkCAM","sender_type":"html.Screen","sender_id":"7","ended_on":"timeout","duration":6998.40000000014,"time_run":1150938,"time_render":1150931.92,"time_show":1150946.66,"time_end":1157928.38,"time_commit":1157931,"timestamp":"2021-12-24T14:58:24.348Z","time_switch":1157945.06},{"sender":null,"sender_type":"flow.Sequence","sender_id":null,"ended_on":"completion","duration":1154785.2999999998,"time_run":2995,"time_render":3026.42,"time_show":3143.08,"time_end":1157928.38,"time_commit":1157932,"timestamp":"2021-12-24T14:58:24.349Z","time_switch":1157945.06}]
[{"url":{"srid":"6444"},"meta":{"labjs_version":"20.2.4","labjs_build":{"flavor":"production","commit":"f5b4a49f956347addd546a832a3327688c2c0fef"},"location":"https://studien.psychologie.uni-freiburg.de/publix/323/346/start?srid=6444","userAgent":"Mozilla/5.0 (Macintosh; Intel Mac OS X 10_15_7) AppleWebKit/605.1.15 (KHTML, like Gecko) Version/14.1.2 Safari/605.1.15","platform":"MacIntel","language":"de-de","locale":"de-DE","timeZone":"Europe/Berlin","timezoneOffset":-60,"screen_width":1440,"screen_height":900,"scroll_width":1440,"scroll_height":435,"window_innerWidth":1440,"window_innerHeight":820,"devicePixelRatio":2},"para_defocuscount":[{"durationblur":1578,"senderblur":"Greetings"},{"durationblur":64555,"senderblur":"Greetings"},{"durationblur":342471,"senderblur":"Greetings"}],"sender":"Greetings","sender_type":"html.Form","sender_id":"0","":"","ended_on":"form submission","duration":1717228,"time_run":6287,"time_render":6311,"time_show":6327,"time_end":1723555,"time_commit":1723556,"timestamp":"2021-12-21T16:14:46.046Z","time_switch":1723619},{"SONA_ID":"4162","sender":"InformedConsent","sender_type":"html.Form","sender_id":"1","dummy_informedconsent":"1","":"","ended_on":"form submission","duration":9050,"time_run":1723557,"time_render":1723576,"time_show":1723619,"time_end":1732669,"time_commit":1732669,"timestamp":"2021-12-21T16:14:55.158Z","time_switch":1732684},{"sender":"InformedConsentNO","sender_type":"html.Form","sender_id":"2","ended_on":"skipped","duration":null,"time_run":1732674,"time_end":1732669,"time_commit":1732674,"timestamp":"2021-12-21T16:14:55.163Z","time_switch":1732684},{"sender":"ExclusionCriteria","sender_type":"html.Form","sender_id":"3","":"","ended_on":"form submission","duration":5369,"time_run":1732674,"time_render":1732676,"time_show":1732684,"time_end":1738053,"time_commit":1738053,"timestamp":"2021-12-21T16:15:00.543Z","time_switch":1738082},{"sender":"SetupStudy","sender_type":"html.Form","sender_id":"4","":"","ended_on":"form submission","duration":6421,"time_run":1738053,"time_render":1738065,"time_show":1738082,"time_end":1744503,"time_commit":1744503,"timestamp":"2021-12-21T16:15:06.992Z","time_switch":1744532},{"sender":"done","sender_type":"html.Screen","sender_id":"5","ended_on":null,"duration":552879,"time_run":1744503,"time_render":1744515,"time_show":1744532,"time_end":2297411,"time_commit":2297413,"timestamp":"2021-12-21T16:24:19.886Z","time_switch":2297453},{"sender":"ScenarioText","sender_type":"html.Form","sender_id":"6","":"","ended_on":"form submission","duration":106054,"time_run":2297414,"time_render":2297436,"time_show":2297453,"time_end":2403507,"time_commit":2403508.0000000005,"timestamp":"2021-12-21T16:26:05.978Z","time_switch":2403524},{"sender":"linkCAM","sender_type":"html.Screen","sender_id":"7","ended_on":"timeout","duration":7001,"time_run":2403508.0000000005,"time_render":2403509,"time_show":2403524,"time_end":2410508,"time_commit":2410511,"timestamp":"2021-12-21T16:26:12.981Z","time_switch":2410525},{"sender":null,"sender_type":"flow.Sequence","sender_id":null,"ended_on":"completion","duration":2404181,"time_run":6287,"time_render":6311,"time_show":6327,"time_end":2410508,"time_commit":2410512,"timestamp":"2021-12-21T16:26:12.982Z","time_switch":2410525}]
[{"url":{"srid":"6434"},"meta":{"labjs_version":"20.2.4","labjs_build":{"flavor":"production","commit":"f5b4a49f956347addd546a832a3327688c2c0fef"},"location":"https://studien.psychologie.uni-freiburg.de/publix/323/346/start?srid=6434","userAgent":"Mozilla/5.0 (Windows NT 10.0; Win64; x64; rv:93.0) Gecko/20100101 Firefox/93.0","platform":"Win32","language":"de","locale":"de-DE","timeZone":"Europe/Berlin","timezoneOffset":-60,"screen_width":1280,"screen_height":1024,"scroll_width":1280,"scroll_height":435,"window_innerWidth":1280,"window_innerHeight":856,"devicePixelRatio":1},"sender":"Greetings","sender_type":"html.Form","sender_id":"0","":"","ended_on":"form submission","duration":10120.6,"time_run":1145,"time_render":1144.68,"time_show":1192.4,"time_end":11313,"time_commit":11319,"timestamp":"2021-12-21T10:30:49.460Z","time_switch":11365.34},{"SONA_ID":"4131","sender":"InformedConsent","sender_type":"html.Form","sender_id":"1","dummy_informedconsent":"1","":"","ended_on":"form submission","duration":18519.66,"time_run":11329,"time_render":11245.42,"time_show":11365.34,"time_end":29885,"time_commit":29887,"timestamp":"2021-12-21T10:31:08.029Z","time_switch":29898.56},{"sender":"InformedConsentNO","sender_type":"html.Form","sender_id":"2","ended_on":"skipped","duration":null,"time_run":29902,"time_end":29885,"time_commit":29904,"timestamp":"2021-12-21T10:31:08.045Z","time_switch":29898.56},{"sender":"ExclusionCriteria","sender_type":"html.Form","sender_id":"3","":"","ended_on":"form submission","duration":12098.439999999999,"time_run":29904,"time_render":29874.7,"time_show":29898.56,"time_end":41997,"time_commit":41998,"timestamp":"2021-12-21T10:31:20.139Z","time_switch":41997.3},{"sender":"SetupStudy","sender_type":"html.Form","sender_id":"4","":"","ended_on":"form submission","duration":14160.699999999997,"time_run":41998,"time_render":41993.74,"time_show":41997.3,"time_end":56158,"time_commit":56158,"timestamp":"2021-12-21T10:31:34.299Z","time_switch":56212.56},{"sender":"done","sender_type":"html.Screen","sender_id":"5","ended_on":null,"duration":405889.44,"time_run":56159,"time_render":56153.44,"time_show":56212.56,"time_end":462102,"time_commit":462105,"timestamp":"2021-12-21T10:38:20.247Z","time_switch":462109.68},{"sender":"ScenarioText","sender_type":"html.Form","sender_id":"6","":"","ended_on":"form submission","duration":177646.32,"time_run":462109,"time_render":462109.22,"time_show":462109.68,"time_end":639756,"time_commit":639757,"timestamp":"2021-12-21T10:41:17.898Z","time_switch":639752.88},{"sender":"linkCAM","sender_type":"html.Screen","sender_id":"7","ended_on":"timeout","duration":6995.140000000014,"time_run":639758,"time_render":639749.56,"time_show":639752.88,"time_end":646732.44,"time_commit":646735,"timestamp":"2021-12-21T10:41:24.877Z","time_switch":646748.02},{"sender":null,"sender_type":"flow.Sequence","sender_id":null,"ended_on":"completion","duration":645540.0399999999,"time_run":1144,"time_render":1144.68,"time_show":1192.4,"time_end":646732.44,"time_commit":646737,"timestamp":"2021-12-21T10:41:24.879Z","time_switch":646748.02}]
[{"url":{"srid":"6431"},"meta":{"labjs_version":"20.2.4","labjs_build":{"flavor":"production","commit":"f5b4a49f956347addd546a832a3327688c2c0fef"},"location":"https://studien.psychologie.uni-freiburg.de/publix/323/346/start?srid=6431","userAgent":"Mozilla/5.0 (Windows NT 10.0; Win64; x64) AppleWebKit/537.36 (KHTML, like Gecko) Chrome/96.0.4664.110 Safari/537.36","platform":"Win32","language":"en-DE","locale":"de","timeZone":"Europe/Berlin","timezoneOffset":-60,"screen_width":1440,"screen_height":960,"scroll_width":1440,"scroll_height":435,"window_innerWidth":1440,"window_innerHeight":831,"devicePixelRatio":1.5},"sender":"Greetings","sender_type":"html.Form","sender_id":"0","":"","ended_on":"form submission","duration":80419.54499997616,"time_run":982.5,"time_render":965.415,"time_show":1015.355,"time_end":81434.89999997616,"time_commit":81435.80000007153,"timestamp":"2021-12-21T09:56:14.659Z","time_switch":81447.293},{"SONA_ID":"5359","sender":"InformedConsent","sender_type":"html.Form","sender_id":"1","dummy_informedconsent":"1","":"","ended_on":"form submission","duration":29708.206999999995,"time_run":81436.80000007153,"time_render":81430.687,"time_show":81447.293,"time_end":111155.5,"time_commit":111156.5,"timestamp":"2021-12-21T09:56:44.379Z","time_switch":111180.191},{"sender":"InformedConsentNO","sender_type":"html.Form","sender_id":"2","ended_on":"skipped","duration":null,"time_run":111174,"time_end":111155.5,"time_commit":111174.39999997616,"timestamp":"2021-12-21T09:56:44.397Z","time_switch":111180.191},{"sender":"ExclusionCriteria","sender_type":"html.Form","sender_id":"3","":"","ended_on":"form submission","duration":6064.009000047678,"time_run":111175,"time_render":111146.897,"time_show":111180.191,"time_end":117244.20000004768,"time_commit":117244.70000004768,"timestamp":"2021-12-21T09:56:50.467Z","time_switch":117246.681},{"sender":"SetupStudy","sender_type":"html.Form","sender_id":"4","":"","ended_on":"form submission","duration":13260.119000071529,"time_run":117244.80000007153,"time_render":117230.32,"time_show":117246.681,"time_end":130506.80000007153,"time_commit":130507.89999997616,"timestamp":"2021-12-21T09:57:03.731Z","time_switch":130613.178},{"sender":"done","sender_type":"html.Screen","sender_id":"5","ended_on":null,"duration":333870.1220000715,"time_run":130508.30000007153,"time_render":130496.807,"time_show":130613.178,"time_end":464483.3000000715,"time_commit":464483.5,"timestamp":"2021-12-21T10:02:37.706Z","time_switch":464490.678},{"sender":"ScenarioText","sender_type":"html.Form","sender_id":"6","":"","ended_on":"form submission","duration":101954.02200004767,"time_run":464483.8000000715,"time_render":464474.114,"time_show":464490.678,"time_end":566444.7000000477,"time_commit":566445.8000000715,"timestamp":"2021-12-21T10:04:19.669Z","time_switch":566455.675},{"sender":"linkCAM","sender_type":"html.Screen","sender_id":"7","ended_on":"timeout","duration":7000.052999999956,"time_run":566446.2000000477,"time_render":566438.992,"time_show":566455.675,"time_end":573439.063,"time_commit":573446.8000000715,"timestamp":"2021-12-21T10:04:26.670Z","time_switch":573455.728},{"sender":null,"sender_type":"flow.Sequence","sender_id":null,"ended_on":"completion","duration":572423.708,"time_run":982,"time_render":965.415,"time_show":1015.355,"time_end":573439.063,"time_commit":573447.8999999762,"timestamp":"2021-12-21T10:04:26.671Z","time_switch":573455.728}]
[{"url":{"srid":"6426"},"meta":{"labjs_version":"20.2.4","labjs_build":{"flavor":"production","commit":"f5b4a49f956347addd546a832a3327688c2c0fef"},"location":"https://studien.psychologie.uni-freiburg.de/publix/323/346/start?srid=6426","userAgent":"Mozilla/5.0 (Windows NT 10.0; Win64; x64) AppleWebKit/537.36 (KHTML, like Gecko) Chrome/96.0.4664.110 Safari/537.36 Edg/96.0.1054.62","platform":"Win32","language":"de","locale":"de","timeZone":"Europe/Berlin","timezoneOffset":-60,"screen_width":1368,"screen_height":912,"scroll_width":1368,"scroll_height":179,"window_innerWidth":1368,"window_innerHeight":801,"devicePixelRatio":2},"sender":"Greetings","sender_type":"html.Form","sender_id":"0","":"","ended_on":"form submission","duration":13842.748999952317,"time_run":869.0999999046326,"time_render":874.924,"time_show":891.551,"time_end":14734.299999952316,"time_commit":14735.699999809265,"timestamp":"2021-12-21T07:35:58.996Z","time_switch":14734.321},{"SONA_ID":"5300","sender":"InformedConsent","sender_type":"html.Form","sender_id":"1","dummy_informedconsent":"1","":"","ended_on":"form submission","duration":3628.378999809265,"time_run":14736.699999809265,"time_render":14717.915,"time_show":14734.321,"time_end":18362.699999809265,"time_commit":18363.099999904633,"timestamp":"2021-12-21T07:36:02.624Z","time_switch":18370.158},{"sender":"InformedConsentNO","sender_type":"html.Form","sender_id":"2","ended_on":"skipped","duration":null,"time_run":18366.799999952316,"time_end":18362.699999809265,"time_commit":18367,"timestamp":"2021-12-21T07:36:02.628Z","time_switch":18370.158},{"sender":"ExclusionCriteria","sender_type":"html.Form","sender_id":"3","":"","ended_on":"form submission","duration":4436.241999856949,"time_run":18367.199999809265,"time_render":18353.509,"time_show":18370.158,"time_end":22806.39999985695,"time_commit":22806.799999952316,"timestamp":"2021-12-21T07:36:07.068Z","time_switch":22835.09},{"sender":"SetupStudy","sender_type":"html.Form","sender_id":"4","":"","ended_on":"form submission","duration":2520.0099999046324,"time_run":22807,"time_render":22789.918,"time_show":22835.09,"time_end":25355.099999904633,"time_commit":25355.599999904633,"timestamp":"2021-12-21T07:36:09.616Z","time_switch":25374.876},{"sender":"done","sender_type":"html.Screen","sender_id":"5","ended_on":null,"duration":433503.02399985696,"time_run":25355.699999809265,"time_render":25341.902,"time_show":25374.876,"time_end":458877.89999985695,"time_commit":458878.19999980927,"timestamp":"2021-12-21T07:43:23.139Z","time_switch":458888.691},{"sender":"ScenarioText","sender_type":"html.Form","sender_id":"6","":"","ended_on":"form submission","duration":115083.70899985696,"time_run":458878.39999985695,"time_render":458871.686,"time_show":458888.691,"time_end":573972.399999857,"time_commit":573973,"timestamp":"2021-12-21T07:45:18.234Z","time_switch":573983.896},{"sender":"linkCAM","sender_type":"html.Screen","sender_id":"7","ended_on":"timeout","duration":7004.707000000053,"time_run":573973.1999998093,"time_render":573967.26,"time_show":573983.896,"time_end":580971.948,"time_commit":580977,"timestamp":"2021-12-21T07:45:25.238Z","time_switch":580988.603},{"sender":null,"sender_type":"flow.Sequence","sender_id":null,"ended_on":"completion","duration":580080.397,"time_run":868.6999998092651,"time_render":874.924,"time_show":891.551,"time_end":580971.948,"time_commit":580977.399999857,"timestamp":"2021-12-21T07:45:25.238Z","time_switch":580988.603}]
[{"url":{"srid":"6423"},"meta":{"labjs_version":"20.2.4","labjs_build":{"flavor":"production","commit":"f5b4a49f956347addd546a832a3327688c2c0fef"},"location":"https://studien.psychologie.uni-freiburg.de/publix/323/346/start?srid=6423","userAgent":"Mozilla/5.0 (Macintosh; Intel Mac OS X 10_15_7) AppleWebKit/537.36 (KHTML, like Gecko) Chrome/96.0.4664.93 Safari/537.36","platform":"MacIntel","language":"de-DE","locale":"de","timeZone":"Europe/Berlin","timezoneOffset":-60,"screen_width":1440,"screen_height":900,"scroll_width":1260,"scroll_height":435,"window_innerWidth":1260,"window_innerHeight":694,"devicePixelRatio":1},"sender":"Greetings","sender_type":"html.Form","sender_id":"0","":"","ended_on":"form submission","duration":50427.347,"time_run":3205.8999999910593,"time_render":3190.676,"time_show":3307.653,"time_end":53735,"time_commit":53735.59999999404,"timestamp":"2021-12-21T06:24:53.654Z","time_switch":53775.257},{"SONA_ID":"4772","sender":"InformedConsent","sender_type":"html.Form","sender_id":"1","dummy_informedconsent":"1","":"","ended_on":"form submission","duration":20525.94299998808,"time_run":53736.79999999702,"time_render":53708.413,"time_show":53775.257,"time_end":74301.19999998808,"time_commit":74301.69999998808,"timestamp":"2021-12-21T06:25:14.221Z","time_switch":74313.975},{"sender":"InformedConsentNO","sender_type":"html.Form","sender_id":"2","ended_on":"skipped","duration":null,"time_run":74312.89999999106,"time_end":74301.19999998808,"time_commit":74313.09999999404,"timestamp":"2021-12-21T06:25:14.232Z","time_switch":74313.975},{"sender":"ExclusionCriteria","sender_type":"html.Form","sender_id":"3","":"","ended_on":"form submission","duration":9305.124999994034,"time_run":74313.19999998808,"time_render":74297.264,"time_show":74313.975,"time_end":83619.09999999404,"time_commit":83619.5,"timestamp":"2021-12-21T06:25:23.539Z","time_switch":83622.002},{"sender":"SetupStudy","sender_type":"html.Form","sender_id":"4","":"","ended_on":"form submission","duration":14461.897999991066,"time_run":83619.69999998808,"time_render":83605.291,"time_show":83622.002,"time_end":98083.89999999106,"time_commit":98084.39999999106,"timestamp":"2021-12-21T06:25:38.004Z","time_switch":98160.779},{"sender":"done","sender_type":"html.Screen","sender_id":"5","ended_on":null,"duration":411471.32099999406,"time_run":98084.59999999404,"time_render":98077.224,"time_show":98160.779,"time_end":509632.09999999404,"time_commit":509632.5,"timestamp":"2021-12-21T06:32:29.562Z","time_switch":509643.447},{"sender":"ScenarioText","sender_type":"html.Form","sender_id":"6","":"","ended_on":"form submission","duration":134277.85299999703,"time_run":509633.1999999881,"time_render":509626.736,"time_show":509643.447,"time_end":643921.299999997,"time_commit":643921.8999999911,"timestamp":"2021-12-21T06:34:43.856Z","time_switch":643934.66},{"sender":"linkCAM","sender_type":"html.Screen","sender_id":"7","ended_on":"timeout","duration":7002.765000000014,"time_run":643922.1999999881,"time_render":643917.949,"time_show":643934.66,"time_end":650920.714,"time_commit":650930,"timestamp":"2021-12-21T06:34:50.864Z","time_switch":650937.425},{"sender":null,"sender_type":"flow.Sequence","sender_id":null,"ended_on":"completion","duration":647613.061,"time_run":3205.5,"time_render":3190.676,"time_show":3307.653,"time_end":650920.714,"time_commit":650930.6999999881,"timestamp":"2021-12-21T06:34:50.865Z","time_switch":650937.425}]
[{"url":{"srid":"6419"},"meta":{"labjs_version":"20.2.4","labjs_build":{"flavor":"production","commit":"f5b4a49f956347addd546a832a3327688c2c0fef"},"location":"https://studien.psychologie.uni-freiburg.de/publix/323/346/start?srid=6419","userAgent":"Mozilla/5.0 (Windows NT 10.0; Win64; x64) AppleWebKit/537.36 (KHTML, like Gecko) Chrome/96.0.4664.110 Safari/537.36","platform":"Win32","language":"de-DE","locale":"de","timeZone":"Europe/Berlin","timezoneOffset":-60,"screen_width":1920,"screen_height":1080,"scroll_width":1920,"scroll_height":435,"window_innerWidth":1920,"window_innerHeight":941,"devicePixelRatio":1},"para_defocuscount":[{"durationblur":71.40000000037253,"senderblur":"Greetings"}],"sender":"Greetings","sender_type":"html.Form","sender_id":"0","":"","ended_on":"form submission","duration":37278.16700000037,"time_run":586.4000000003725,"time_render":550.727,"time_show":600.733,"time_end":37878.90000000037,"time_commit":37879.5,"timestamp":"2021-12-20T15:24:03.722Z","time_switch":37883.707},{"SONA_ID":"4763","sender":"InformedConsent","sender_type":"html.Form","sender_id":"1","dummy_informedconsent":"1","":"","ended_on":"form submission","duration":4079.8929999996253,"time_run":37880,"time_render":37867.034,"time_show":37883.707,"time_end":41963.59999999963,"time_commit":41963.800000000745,"timestamp":"2021-12-20T15:24:07.807Z","time_switch":41983.661},{"sender":"InformedConsentNO","sender_type":"html.Form","sender_id":"2","ended_on":"skipped","duration":null,"time_run":41967.199999999255,"time_end":41963.59999999963,"time_commit":41967.300000000745,"timestamp":"2021-12-20T15:24:07.810Z","time_switch":41983.661},{"sender":"ExclusionCriteria","sender_type":"html.Form","sender_id":"3","":"","ended_on":"form submission","duration":4098.2390000003725,"time_run":41967.40000000037,"time_render":41966.973,"time_show":41983.661,"time_end":46081.90000000037,"time_commit":46082.199999999255,"timestamp":"2021-12-20T15:24:11.925Z","time_switch":46083.62},{"sender":"SetupStudy","sender_type":"html.Form","sender_id":"4","":"","ended_on":"form submission","duration":16320.379999999997,"time_run":46082.40000000037,"time_render":46066.94,"time_show":46083.62,"time_end":62404,"time_commit":62404.199999999255,"timestamp":"2021-12-20T15:24:28.247Z","time_switch":62433.466},{"sender":"done","sender_type":"html.Screen","sender_id":"5","ended_on":null,"duration":243481.1339999996,"time_run":62404.300000000745,"time_render":62416.859,"time_show":62433.466,"time_end":305914.5999999996,"time_commit":305914.9000000004,"timestamp":"2021-12-20T15:28:31.758Z","time_switch":305931.301},{"sender":"ScenarioText","sender_type":"html.Form","sender_id":"6","":"","ended_on":"form submission","duration":490316.79899999965,"time_run":305914.9000000004,"time_render":305914.376,"time_show":305931.301,"time_end":796248.0999999996,"time_commit":796248.3000000007,"timestamp":"2021-12-20T15:36:42.091Z","time_switch":796260.326},{"sender":"linkCAM","sender_type":"html.Screen","sender_id":"7","ended_on":"timeout","duration":6999.949999999953,"time_run":796248.5,"time_render":796243.697,"time_show":796260.326,"time_end":803243.599,"time_commit":803245.3000000007,"timestamp":"2021-12-20T15:36:49.088Z","time_switch":803260.276},{"sender":null,"sender_type":"flow.Sequence","sender_id":null,"ended_on":"completion","duration":802642.866,"time_run":586.1999999992549,"time_render":550.727,"time_show":600.733,"time_end":803243.599,"time_commit":803245.5999999996,"timestamp":"2021-12-20T15:36:49.088Z","time_switch":803260.276}]
[{"url":{"srid":"6416"},"meta":{"labjs_version":"20.2.4","labjs_build":{"flavor":"production","commit":"f5b4a49f956347addd546a832a3327688c2c0fef"},"location":"https://studien.psychologie.uni-freiburg.de/publix/323/346/start?srid=6416","userAgent":"Mozilla/5.0 (Windows NT 10.0; Win64; x64) AppleWebKit/537.36 (KHTML, like Gecko) Chrome/96.0.4664.110 Safari/537.36","platform":"Win32","language":"de-DE","locale":"de","timeZone":"Europe/Berlin","timezoneOffset":-60,"screen_width":1366,"screen_height":768,"scroll_width":1242,"scroll_height":435,"window_innerWidth":1242,"window_innerHeight":568,"devicePixelRatio":1.100000023841858},"sender":"Greetings","sender_type":"html.Form","sender_id":"0","":"","ended_on":"form submission","duration":23086.51299985695,"time_run":6352.399999856949,"time_render":6366.342,"time_show":6382.887,"time_end":29469.39999985695,"time_commit":29470.700000047684,"timestamp":"2021-12-20T14:56:56.315Z","time_switch":29511.794},{"SONA_ID":"4801","sender":"InformedConsent","sender_type":"html.Form","sender_id":"1","dummy_informedconsent":"1","":"","ended_on":"form submission","duration":8719.705999999998,"time_run":29473.5,"time_render":29445.303,"time_show":29511.794,"time_end":38231.5,"time_commit":38232.5,"timestamp":"2021-12-20T14:57:05.076Z","time_switch":38276.784},{"sender":"InformedConsentNO","sender_type":"html.Form","sender_id":"2","ended_on":"skipped","duration":null,"time_run":38265.39999985695,"time_end":38231.5,"time_commit":38267.200000047684,"timestamp":"2021-12-20T14:57:05.111Z","time_switch":38276.784},{"sender":"ExclusionCriteria","sender_type":"html.Form","sender_id":"3","":"","ended_on":"form submission","duration":4842.916000047684,"time_run":38268.89999985695,"time_render":38227.017,"time_show":38276.784,"time_end":43119.700000047684,"time_commit":43120.39999985695,"timestamp":"2021-12-20T14:57:09.964Z","time_switch":43125.981},{"sender":"SetupStudy","sender_type":"html.Form","sender_id":"4","":"","ended_on":"form submission","duration":10534.118999904633,"time_run":43120.89999985695,"time_render":43109.415,"time_show":43125.981,"time_end":53660.09999990463,"time_commit":53660.59999990463,"timestamp":"2021-12-20T14:57:20.504Z","time_switch":53707.115},{"sender":"done","sender_type":"html.Screen","sender_id":"5","ended_on":null,"duration":276664.28499985696,"time_run":53660.89999985695,"time_render":53657.213,"time_show":53707.115,"time_end":330371.39999985695,"time_commit":330372.2000000477,"timestamp":"2021-12-20T15:01:57.216Z","time_switch":330403.91},{"sender":"ScenarioText","sender_type":"html.Form","sender_id":"6","":"","ended_on":"form submission","duration":107034.98999985697,"time_run":330373.09999990463,"time_render":330371.693,"time_show":330403.91,"time_end":437438.89999985695,"time_commit":437439.7000000477,"timestamp":"2021-12-20T15:03:44.284Z","time_switch":437450.014},{"sender":"linkCAM","sender_type":"html.Screen","sender_id":"7","ended_on":"timeout","duration":6998.592000000004,"time_run":437440.2999999523,"time_render":437433.423,"time_show":437450.014,"time_end":444432.108,"time_commit":444445.89999985695,"timestamp":"2021-12-20T15:03:51.290Z","time_switch":444448.606},{"sender":null,"sender_type":"flow.Sequence","sender_id":null,"ended_on":"completion","duration":438049.221,"time_run":6352,"time_render":6366.342,"time_show":6382.887,"time_end":444432.108,"time_commit":444447.39999985695,"timestamp":"2021-12-20T15:03:51.291Z","time_switch":444448.606}]
[{"url":{"srid":"6407"},"meta":{"labjs_version":"20.2.4","labjs_build":{"flavor":"production","commit":"f5b4a49f956347addd546a832a3327688c2c0fef"},"location":"https://studien.psychologie.uni-freiburg.de/publix/323/346/start?srid=6407","userAgent":"Mozilla/5.0 (Macintosh; Intel Mac OS X 10_15_7) AppleWebKit/605.1.15 (KHTML, like Gecko) Version/15.1 Safari/605.1.15","platform":"MacIntel","language":"de-DE","locale":"de-DE","timeZone":"Asia/Jerusalem","timezoneOffset":-120,"screen_width":1440,"screen_height":900,"scroll_width":1440,"scroll_height":435,"window_innerWidth":1440,"window_innerHeight":703,"devicePixelRatio":2},"sender":"Greetings","sender_type":"html.Form","sender_id":"0","":"","ended_on":"form submission","duration":37421,"time_run":1601,"time_render":1626,"time_show":1640,"time_end":39061,"time_commit":39062,"timestamp":"2021-12-20T10:52:07.770Z","time_switch":39096},{"SONA_ID":"5433","sender":"InformedConsent","sender_type":"html.Form","sender_id":"1","dummy_informedconsent":"1","":"","ended_on":"form submission","duration":5327,"time_run":39063,"time_render":39072,"time_show":39096,"time_end":44423,"time_commit":44424,"timestamp":"2021-12-20T10:52:13.132Z","time_switch":44453},{"sender":"InformedConsentNO","sender_type":"html.Form","sender_id":"2","ended_on":"skipped","duration":null,"time_run":44429,"time_end":44423,"time_commit":44429,"timestamp":"2021-12-20T10:52:13.137Z","time_switch":44453},{"sender":"ExclusionCriteria","sender_type":"html.Form","sender_id":"3","":"","ended_on":"form submission","duration":5704,"time_run":44429,"time_render":44436,"time_show":44453,"time_end":50157,"time_commit":50157,"timestamp":"2021-12-20T10:52:18.865Z","time_switch":50186},{"sender":"SetupStudy","sender_type":"html.Form","sender_id":"4","":"","ended_on":"form submission","duration":5017,"time_run":50158,"time_render":50169,"time_show":50186,"time_end":55203,"time_commit":55203,"timestamp":"2021-12-20T10:52:23.911Z","time_switch":55236},{"sender":"done","sender_type":"html.Screen","sender_id":"5","ended_on":null,"duration":197088,"time_run":55204,"time_render":55221,"time_show":55236,"time_end":252324,"time_commit":252325.00000000003,"timestamp":"2021-12-20T10:55:41.036Z","time_switch":252367},{"sender":"ScenarioText","sender_type":"html.Form","sender_id":"6","":"","ended_on":"form submission","duration":135999,"time_run":252325.00000000003,"time_render":252350,"time_show":252367,"time_end":388366,"time_commit":388367,"timestamp":"2021-12-20T10:57:57.081Z","time_switch":388399},{"sender":"linkCAM","sender_type":"html.Screen","sender_id":"7","ended_on":"timeout","duration":7000,"time_run":388367,"time_render":388382,"time_show":388399,"time_end":395382,"time_commit":395383,"timestamp":"2021-12-20T10:58:04.097Z","time_switch":395399},{"sender":null,"sender_type":"flow.Sequence","sender_id":null,"ended_on":"completion","duration":393742,"time_run":1601,"time_render":1626,"time_show":1640,"time_end":395382,"time_commit":395384,"timestamp":"2021-12-20T10:58:04.098Z","time_switch":395399}]
[{"url":{"srid":"6403"},"meta":{"labjs_version":"20.2.4","labjs_build":{"flavor":"production","commit":"f5b4a49f956347addd546a832a3327688c2c0fef"},"location":"https://studien.psychologie.uni-freiburg.de/publix/323/346/start?srid=6403","userAgent":"Mozilla/5.0 (Macintosh; Intel Mac OS X 10.15; rv:94.0) Gecko/20100101 Firefox/94.0","platform":"MacIntel","language":"de","locale":"de-DE","timeZone":"Europe/Berlin","timezoneOffset":-60,"screen_width":1280,"screen_height":800,"scroll_width":1280,"scroll_height":435,"window_innerWidth":1280,"window_innerHeight":687,"devicePixelRatio":2},"sender":"Greetings","sender_type":"html.Form","sender_id":"0","":"","ended_on":"form submission","duration":42306.64,"time_run":2642,"time_render":2628.68,"time_show":2644.36,"time_end":44951,"time_commit":44952,"timestamp":"2021-12-20T09:19:06.761Z","time_switch":44976.88},{"SONA_ID":"4204","sender":"InformedConsent","sender_type":"html.Form","sender_id":"1","dummy_informedconsent":"1","":"","ended_on":"form submission","duration":7203.120000000003,"time_run":44956,"time_render":44940.7,"time_show":44976.88,"time_end":52180,"time_commit":52180,"timestamp":"2021-12-20T09:19:13.990Z","time_switch":52213.72},{"sender":"InformedConsentNO","sender_type":"html.Form","sender_id":"2","ended_on":"skipped","duration":null,"time_run":52185,"time_end":52180,"time_commit":52185,"timestamp":"2021-12-20T09:19:13.994Z","time_switch":52213.72},{"sender":"ExclusionCriteria","sender_type":"html.Form","sender_id":"3","":"","ended_on":"form submission","duration":7440.279999999999,"time_run":52185,"time_render":52172.74,"time_show":52213.72,"time_end":59654,"time_commit":59654,"timestamp":"2021-12-20T09:19:21.464Z","time_switch":59646.6},{"sender":"SetupStudy","sender_type":"html.Form","sender_id":"4","":"","ended_on":"form submission","duration":12245.400000000001,"time_run":59654,"time_render":59645.86,"time_show":59646.6,"time_end":71892,"time_commit":71893,"timestamp":"2021-12-20T09:19:33.701Z","time_switch":71919.46},{"sender":"done","sender_type":"html.Screen","sender_id":"5","ended_on":null,"duration":397818.54,"time_run":71894,"time_render":71882.82,"time_show":71919.46,"time_end":469738,"time_commit":469740,"timestamp":"2021-12-20T09:26:11.539Z","time_switch":469741.62},{"sender":"ScenarioText","sender_type":"html.Form","sender_id":"6","":"","ended_on":"form submission","duration":91225.38,"time_run":469741,"time_render":469740.82,"time_show":469741.62,"time_end":560967,"time_commit":560968,"timestamp":"2021-12-20T09:27:42.764Z","time_switch":560958.14},{"sender":"linkCAM","sender_type":"html.Screen","sender_id":"7","ended_on":"timeout","duration":7004.599999999977,"time_run":560969,"time_render":560957.64,"time_show":560958.14,"time_end":567946.1,"time_commit":567947,"timestamp":"2021-12-20T09:27:49.744Z","time_switch":567962.74},{"sender":null,"sender_type":"flow.Sequence","sender_id":null,"ended_on":"completion","duration":565301.74,"time_run":2642,"time_render":2628.68,"time_show":2644.36,"time_end":567946.1,"time_commit":567948,"timestamp":"2021-12-20T09:27:49.745Z","time_switch":567962.74}]
[{"url":{"srid":"6401"},"meta":{"labjs_version":"20.2.4","labjs_build":{"flavor":"production","commit":"f5b4a49f956347addd546a832a3327688c2c0fef"},"location":"https://studien.psychologie.uni-freiburg.de/publix/323/346/start?srid=6401","userAgent":"Mozilla/5.0 (Macintosh; Intel Mac OS X 10_15_7) AppleWebKit/537.36 (KHTML, like Gecko) Chrome/96.0.4664.55 Safari/537.36","platform":"MacIntel","language":"en-GB","locale":"en-GB","timeZone":"Europe/Berlin","timezoneOffset":-60,"screen_width":1440,"screen_height":900,"scroll_width":1440,"scroll_height":179,"window_innerWidth":1440,"window_innerHeight":714,"devicePixelRatio":2},"sender":"Greetings","sender_type":"html.Form","sender_id":"0","":"","ended_on":"form submission","duration":45577.060000047684,"time_run":564.2000000476837,"time_render":563.973,"time_show":580.64,"time_end":46157.700000047684,"time_commit":46158.5,"timestamp":"2021-12-20T08:52:03.538Z","time_switch":46164.925},{"SONA_ID":"5335","sender":"InformedConsent","sender_type":"html.Form","sender_id":"1","dummy_informedconsent":"1","":"","ended_on":"form submission","duration":15174.475000095365,"time_run":46159.90000009537,"time_render":46148.258,"time_show":46164.925,"time_end":61339.40000009537,"time_commit":61339.90000009537,"timestamp":"2021-12-20T08:52:18.719Z"}]
[{"url":{"srid":"6398"},"meta":{"labjs_version":"20.2.4","labjs_build":{"flavor":"production","commit":"f5b4a49f956347addd546a832a3327688c2c0fef"},"location":"https://studien.psychologie.uni-freiburg.de/publix/323/346/start?srid=6398","userAgent":"Mozilla/5.0 (Macintosh; Intel Mac OS X 10_15_7) AppleWebKit/605.1.15 (KHTML, like Gecko) Version/15.1 Safari/605.1.15","platform":"MacIntel","language":"de-DE","locale":"de-DE","timeZone":"Europe/Berlin","timezoneOffset":-60,"screen_width":2560,"screen_height":1440,"scroll_width":2560,"scroll_height":435,"window_innerWidth":2560,"window_innerHeight":1360,"devicePixelRatio":2},"sender":"Greetings","sender_type":"html.Form","sender_id":"0","":"","ended_on":"form submission","duration":6534,"time_run":594,"time_render":601,"time_show":604,"time_end":7138,"time_commit":7139,"timestamp":"2021-12-20T07:39:02.149Z","time_switch":7164},{"SONA_ID":"4989","sender":"InformedConsent","sender_type":"html.Form","sender_id":"1","dummy_informedconsent":"1","":"","ended_on":"form submission","duration":13390.000000000004,"time_run":7139,"time_render":7148,"time_show":7164,"time_end":20554.000000000004,"time_commit":20554.000000000004,"timestamp":"2021-12-20T07:39:15.564Z","time_switch":20599},{"sender":"InformedConsentNO","sender_type":"html.Form","sender_id":"2","ended_on":"skipped","duration":null,"time_run":20557.000000000004,"time_end":20554.000000000004,"time_commit":20557.000000000004,"timestamp":"2021-12-20T07:39:15.567Z","time_switch":20599},{"sender":"ExclusionCriteria","sender_type":"html.Form","sender_id":"3","":"","ended_on":"form submission","duration":2422,"time_run":20557.000000000004,"time_render":20583,"time_show":20599,"time_end":23021,"time_commit":23021,"timestamp":"2021-12-20T07:39:18.031Z","time_switch":23049},{"sender":"SetupStudy","sender_type":"html.Form","sender_id":"4","":"","ended_on":"form submission","duration":16560,"time_run":23022.000000000004,"time_render":23033,"time_show":23049,"time_end":39609,"time_commit":39610,"timestamp":"2021-12-20T07:39:34.619Z","time_switch":39651},{"sender":"done","sender_type":"html.Screen","sender_id":"5","ended_on":null,"duration":473831,"time_run":39610,"time_render":39635,"time_show":39651,"time_end":513482,"time_commit":513482,"timestamp":"2021-12-20T07:47:28.599Z","time_switch":513524},{"sender":"ScenarioText","sender_type":"html.Form","sender_id":"6","":"","ended_on":"form submission","duration":584331,"time_run":513482,"time_render":513508,"time_show":513524,"time_end":1097855,"time_commit":1097855,"timestamp":"2021-12-20T07:57:12.963Z","time_switch":1097894},{"sender":"linkCAM","sender_type":"html.Screen","sender_id":"7","ended_on":"timeout","duration":7001,"time_run":1097855,"time_render":1097878,"time_show":1097894,"time_end":1104878,"time_commit":1104879.0000000002,"timestamp":"2021-12-20T07:57:19.986Z","time_switch":1104895},{"sender":null,"sender_type":"flow.Sequence","sender_id":null,"ended_on":"completion","duration":1104274,"time_run":594,"time_render":601,"time_show":604,"time_end":1104878,"time_commit":1104879.0000000002,"timestamp":"2021-12-20T07:57:19.986Z","time_switch":1104895}]
[{"url":{"srid":"6392"},"meta":{"labjs_version":"20.2.4","labjs_build":{"flavor":"production","commit":"f5b4a49f956347addd546a832a3327688c2c0fef"},"location":"https://studien.psychologie.uni-freiburg.de/publix/323/346/start?srid=6392","userAgent":"Mozilla/5.0 (Windows NT 10.0; Win64; x64; rv:95.0) Gecko/20100101 Firefox/95.0","platform":"Win32","language":"de","locale":"de-DE","timeZone":"Europe/Berlin","timezoneOffset":-60,"screen_width":1536,"screen_height":864,"scroll_width":1536,"scroll_height":179,"window_innerWidth":1536,"window_innerHeight":739,"devicePixelRatio":1.25},"sender":"Greetings","sender_type":"html.Form","sender_id":"0","":"","ended_on":"form submission","duration":25935.2,"time_run":1591,"time_render":1595.12,"time_show":1611.8,"time_end":27547,"time_commit":27548,"timestamp":"2021-12-19T19:48:17.060Z","time_switch":27544.68},{"SONA_ID":"5321","sender":"InformedConsent","sender_type":"html.Form","sender_id":"1","dummy_informedconsent":"1","":"","ended_on":"form submission","duration":9514.32,"time_run":27549,"time_render":27529.02,"time_show":27544.68,"time_end":37059,"time_commit":37059,"timestamp":"2021-12-19T19:48:26.570Z","time_switch":37061.14},{"sender":"InformedConsentNO","sender_type":"html.Form","sender_id":"2","ended_on":"skipped","duration":null,"time_run":37063,"time_end":37059,"time_commit":37064,"timestamp":"2021-12-19T19:48:26.576Z","time_switch":37061.14},{"sender":"ExclusionCriteria","sender_type":"html.Form","sender_id":"3","":"","ended_on":"form submission","duration":4825.860000000001,"time_run":37064,"time_render":37056.64,"time_show":37061.14,"time_end":41887,"time_commit":41888,"timestamp":"2021-12-19T19:48:31.401Z","time_switch":41894.44},{"sender":"SetupStudy","sender_type":"html.Form","sender_id":"4","":"","ended_on":"form submission","duration":27632.559999999998,"time_run":41890,"time_render":41883.54,"time_show":41894.44,"time_end":69527,"time_commit":69528,"timestamp":"2021-12-19T19:48:59.040Z","time_switch":69543.82},{"para_defocuscount":[{"durationblur":2467,"senderblur":"done"},{"durationblur":10339,"senderblur":"done"}],"sender":"done","sender_type":"html.Screen","sender_id":"5","ended_on":null,"duration":277760.18,"time_run":69529,"time_render":69523.22,"time_show":69543.82,"time_end":347304,"time_commit":347306,"timestamp":"2021-12-19T19:53:36.817Z","time_switch":347308.34},{"sender":"ScenarioText","sender_type":"html.Form","sender_id":"6","":"","ended_on":"form submission","duration":110034.65999999997,"time_run":347308,"time_render":347308.06,"time_show":347308.34,"time_end":457343,"time_commit":457344,"timestamp":"2021-12-19T19:55:26.856Z","time_switch":457336.16},{"sender":"linkCAM","sender_type":"html.Screen","sender_id":"7","ended_on":"timeout","duration":6999.960000000021,"time_run":457346,"time_render":457335.58,"time_show":457336.16,"time_end":464319.46,"time_commit":464321,"timestamp":"2021-12-19T19:55:33.833Z","time_switch":464336.12},{"sender":null,"sender_type":"flow.Sequence","sender_id":null,"ended_on":"completion","duration":462707.66000000003,"time_run":1591,"time_render":1595.12,"time_show":1611.8,"time_end":464319.46,"time_commit":464323,"timestamp":"2021-12-19T19:55:33.834Z","time_switch":464336.12}]
